time,seconds_elapsed,z,y,x
1733860954918383900,0.0153837890625,-0.00012309872545301914,0.013158812187612057,0.002699436154216528
1733860954928334600,0.02533447265625,-0.0022285939194262028,0.011748136021196842,-0.0010998293291777372
1733860954938284800,0.035284912109375,-0.003090222366154194,0.004573296755552292,0.0013963208766654134
1733860954948235800,0.04523583984375,-0.008575002662837505,0.002816143212839961,0.003393957857042551
1733860954958186800,0.055186767578125,-0.017140453681349754,0.0059762634336948395,0.0025437292642891407
1733860954968137700,0.0651376953125,-0.018120495602488518,0.015599861741065979,0.009569414891302586
1733860954978088000,0.075087890625,-0.010621375404298306,0.021623918786644936,0.012007685378193855
1733860954988038700,0.08503857421875,-0.004636187106370926,0.018320001661777496,0.007292026653885841
1733860954997990000,0.094989990234375,-0.005001757759600878,0.008102798834443092,0.007112974300980568
1733860955007940900,0.10494091796875,-0.0029109101742506027,-0.0021152175031602383,0.000511264312081039
1733860955017890800,0.114890869140625,-0.0023909604642540216,-0.011931617744266987,-0.008304295130074024
1733860955027841800,0.124841796875,0.0017060465179383755,-0.03646066039800644,-0.016147837042808533
1733860955037793000,0.13479296875,0.009048240259289742,-0.046290408819913864,-0.026526834815740585
1733860955047743700,0.14474365234375,0.0154185201972723,-0.043231766670942307,-0.027962278574705124
1733860955057695000,0.154695068359375,0.022918717935681343,-0.038001030683517456,-0.032049890607595444
1733860955067645000,0.16464501953125,0.02704714983701706,-0.03867587447166443,-0.03495939075946808
1733860955077595600,0.174595703125,0.03531123697757721,-0.05279998108744621,-0.04739725589752197
1733860955087547000,0.184546875,0.03935737907886505,-0.08071017265319824,-0.05737798660993576
1733860955097497600,0.19449755859375,0.04054412245750427,-0.11337143927812576,-0.07047931849956512
1733860955107447800,0.20444775390625,0.03314293175935745,-0.13123725354671478,-0.08580075204372406
1733860955117398800,0.214398681640625,0.025103632360696793,-0.15510210394859314,-0.09581755101680756
1733860955127349800,0.224349853515625,0.01193270180374384,-0.19841736555099487,-0.09942587465047836
1733860955137300700,0.23430078125,-0.022335367277264595,-0.25972625613212585,-0.11720746755599976
1733860955147251000,0.2442509765625,-0.04969561845064163,-0.3166012763977051,-0.1457701325416565
1733860955157201700,0.25420166015625,-0.08109067380428314,-0.41505005955696106,-0.1876259446144104
1733860955167153000,0.26415283203125,-0.11768437176942825,-0.5457279086112976,-0.2331915646791458
1733860955177104000,0.274103759765625,-0.10932016372680664,-0.6484143733978271,-0.26535359025001526
1733860955187053800,0.2840537109375,-0.08179958909749985,-0.7389072179794312,-0.2926611006259918
1733860955197004800,0.2940048828125,-0.06683555990457535,-0.7761480808258057,-0.31180423498153687
1733860955206956000,0.3039560546875,-0.06057792529463768,-0.7909584641456604,-0.317848265171051
1733860955216906800,0.31390673828125,-0.06676075607538223,-0.7979974746704102,-0.30551308393478394
1733860955226856700,0.323856689453125,-0.07297417521476746,-0.7943393588066101,-0.2966063916683197
1733860955236808000,0.333807861328125,-0.07808317989110947,-0.802575409412384,-0.2923649847507477
1733860955246758700,0.343758544921875,-0.08180121332406998,-0.8440075516700745,-0.2978782653808594
1733860955256710000,0.3537099609375,-0.08816251158714294,-0.9146652221679688,-0.3074057400226593
1733860955266659800,0.363659912109375,-0.08478908240795135,-0.9809808731079102,-0.32811954617500305
1733860955276610800,0.37361083984375,-0.0841384157538414,-1.038591742515564,-0.3482871651649475
1733860955286561800,0.383561767578125,-0.0651431530714035,-1.0584620237350464,-0.360720157623291
1733860955296512800,0.3935126953125,-0.021924344822764397,-1.0129190683364868,-0.36368054151535034
1733860955306462700,0.403462646484375,0.02589031495153904,-0.9427551627159119,-0.3502163887023926
1733860955316414000,0.4134140625,0.060574427247047424,-0.8650878071784973,-0.31805214285850525
1733860955326364700,0.42336474609375,0.09371373802423477,-0.7961792945861816,-0.2930176258087158
1733860955336316000,0.43331591796875,0.14552772045135498,-0.7708393335342407,-0.29966503381729126
1733860955346265900,0.443265869140625,0.15756680071353912,-0.7356722950935364,-0.2979440987110138
1733860955356216800,0.453216796875,0.03888368234038353,-0.5949258208274841,-0.21889878809452057
1733860955366167800,0.463167724609375,-0.04651004448533058,-0.27216559648513794,-0.0779171735048294
1733860955376118800,0.473118896484375,-0.09231986850500107,-0.09708194434642792,-0.03648039698600769
1733860955386068700,0.48306884765625,-0.09972824901342392,-0.15041546523571014,-0.04843559488654137
1733860955396019700,0.493019775390625,-0.0857539102435112,-0.25619012117385864,-0.07324113696813583
1733860955405970700,0.502970703125,-0.0836327001452446,-0.3166361451148987,-0.08590500056743622
1733860955415922000,0.512921875,-0.09382254630327225,-0.333758682012558,-0.08011608570814133
1733860955425873000,0.522872802734375,-0.10649333894252777,-0.35497981309890747,-0.07425766438245773
1733860955435822800,0.53282275390625,-0.1117977574467659,-0.38128411769866943,-0.05740544572472572
1733860955445773800,0.54277392578125,-0.12009616941213608,-0.4073399603366852,-0.03345271199941635
1733860955455724800,0.552724853515625,-0.1301386058330536,-0.44166356325149536,-0.025126954540610313
1733860955465675800,0.56267578125,-0.14816661179065704,-0.4581863284111023,-0.03240004926919937
1733860955475625700,0.572625732421875,-0.16891764104366302,-0.46401917934417725,-0.03952944278717041
1733860955485577000,0.582576904296875,-0.18926313519477844,-0.45587658882141113,-0.04397239536046982
1733860955495527700,0.592527587890625,-0.2082372009754181,-0.45188531279563904,-0.04340275377035141
1733860955505479000,0.60247900390625,-0.22320950031280518,-0.4561258852481842,-0.04358358308672905
1733860955515428900,0.612428955078125,-0.22251921892166138,-0.4598793387413025,-0.05686429142951965
1733860955525379800,0.6223798828125,-0.20447683334350586,-0.48697328567504883,-0.07228479534387589
1733860955535330800,0.632330810546875,-0.17069055140018463,-0.5359613299369812,-0.0841812789440155
1733860955545281800,0.64228173828125,-0.13856138288974762,-0.5967559814453125,-0.09750614315271378
1733860955555231700,0.652231689453125,-0.11384649574756622,-0.6478263139724731,-0.1155073344707489
1733860955565183000,0.662182861328125,-0.10847117006778717,-0.6745226383209229,-0.13563044369220734
1733860955575133700,0.6721337890625,-0.12242939323186874,-0.7007779479026794,-0.14676433801651
1733860955585085000,0.6820849609375,-0.15259021520614624,-0.7453593015670776,-0.15198226273059845
1733860955595035000,0.692034912109375,-0.1876714676618576,-0.7674664258956909,-0.15734732151031494
1733860955604985600,0.701985595703125,-0.2125975787639618,-0.7571741342544556,-0.1692577749490738
1733860955614936800,0.711936767578125,-0.23305070400238037,-0.7400186061859131,-0.1639605611562729
1733860955624887800,0.7218876953125,-0.257921427488327,-0.7021958231925964,-0.14010290801525116
1733860955634837800,0.731837646484375,-0.283076673746109,-0.6349382400512695,-0.1337522268295288
1733860955644788700,0.741788818359375,-0.30912718176841736,-0.5498491525650024,-0.14392098784446716
1733860955654740000,0.751739990234375,-0.34079399704933167,-0.4464101195335388,-0.14659065008163452
1733860955664690700,0.761690673828125,-0.3696852922439575,-0.3468209505081177,-0.1498468965291977
1733860955674641000,0.771640869140625,-0.3908938467502594,-0.2885392904281616,-0.12610627710819244
1733860955684591900,0.781591796875,-0.4012053310871124,-0.2527157664299011,-0.10317379236221313
1733860955694544000,0.7915439453125,-0.4002923369407654,-0.23730482161045074,-0.09907826781272888
1733860955704494800,0.801494873046875,-0.39763128757476807,-0.2397298961877823,-0.09250984340906143
1733860955714445800,0.81144580078125,-0.3994660973548889,-0.25545668601989746,-0.08004790544509888
1733860955724396000,0.82139599609375,-0.40672239661216736,-0.2728008031845093,-0.06039857491850853
1733860955734346800,0.8313466796875,-0.4241258502006531,-0.289668470621109,-0.04849462956190109
1733860955744298000,0.841298095703125,-0.4396134614944458,-0.2917747497558594,-0.043153394013643265
1733860955754249000,0.8512490234375,-0.45634394884109497,-0.2661242187023163,-0.0406215526163578
1733860955764199000,0.861198974609375,-0.4682876765727997,-0.19268330931663513,-0.036125872284173965
1733860955774150000,0.87114990234375,-0.4802801012992859,-0.10760142654180527,-0.016295647248625755
1733860955784101000,0.88110107421875,-0.4868261516094208,-0.0063296654261648655,0.01569211296737194
1733860955794051800,0.8910517578125,-0.49204251170158386,0.09138543903827667,0.039221491664648056
1733860955804002000,0.901001953125,-0.4939970076084137,0.16435205936431885,0.0716548040509224
1733860955813953000,0.910953125,-0.4930870532989502,0.21556517481803894,0.10634972155094147
1733860955823904000,0.920904052734375,-0.48962709307670593,0.22239618003368378,0.12373802810907364
1733860955833855000,0.93085498046875,-0.4804924726486206,0.18766134977340698,0.13103839755058289
1733860955843805000,0.940804931640625,-0.47221803665161133,0.14069224894046783,0.13685500621795654
1733860955853756000,0.950755859375,-0.46102380752563477,0.11642097681760788,0.12754419445991516
1733860955863707000,0.960706787109375,-0.45373156666755676,0.11244833469390869,0.11522601544857025
1733860955873657900,0.970657958984375,-0.4443666934967041,0.11930467188358307,0.09867014735937119
1733860955883607800,0.98060791015625,-0.4320354461669922,0.12536202371120453,0.08495992422103882
1733860955893559000,0.99055908203125,-0.4041900038719177,0.1198040097951889,0.08056094497442245
1733860955903509800,1.000509765625,-0.36442849040031433,0.11459752917289734,0.08491335064172745
1733860955913461000,1.0104609375,-0.327957421541214,0.13148359954357147,0.08468109369277954
1733860955923411000,1.020410888671875,-0.29924851655960083,0.16796277463436127,0.08020512014627457
1733860955933362000,1.03036181640625,-0.27813205122947693,0.20348668098449707,0.08408480882644653
1733860955943313000,1.04031298828125,-0.26861098408699036,0.23152311146259308,0.09345940500497818
1733860955953263900,1.050263916015625,-0.26405832171440125,0.2494392693042755,0.10320719331502914
1733860955963213800,1.0602138671875,-0.2578291893005371,0.26382431387901306,0.10821287333965302
1733860955973165000,1.0701650390625,-0.24845443665981293,0.28564465045928955,0.12689577043056488
1733860955983116000,1.080115966796875,-0.24074111878871918,0.31856611371040344,0.1414416879415512
1733860955993067000,1.09006689453125,-0.23352199792861938,0.3535941541194916,0.15708661079406738
1733860956003017000,1.100016845703125,-0.22896213829517365,0.37409305572509766,0.16864126920700073
1733860956012968000,1.109968017578125,-0.22126562893390656,0.3751777410507202,0.16478243470191956
1733860956022919000,1.1199189453125,-0.21064333617687225,0.35062554478645325,0.15662863850593567
1733860956032870000,1.129869873046875,-0.1984337866306305,0.30999234318733215,0.1451713591814041
1733860956042820000,1.139820068359375,-0.18422608077526093,0.25294050574302673,0.13076871633529663
1733860956052770800,1.149770751953125,-0.1699848771095276,0.19728229939937592,0.10750704258680344
1733860956062722000,1.15972216796875,-0.15812209248542786,0.15562380850315094,0.08154521882534027
1733860956072672800,1.1696728515625,-0.14748568832874298,0.11774513125419617,0.052781689912080765
1733860956082623000,1.179623046875,-0.14280705153942108,0.0829503983259201,0.02259848453104496
1733860956092574000,1.189573974609375,-0.13495877385139465,0.05207689851522446,-0.001295128371566534
1733860956102525000,1.19952490234375,-0.12502706050872803,0.03460043668746948,-0.017579825595021248
1733860956112476000,1.209475830078125,-0.11193579435348511,0.02511078678071499,-0.02660057134926319
1733860956122427000,1.219427001953125,-0.08959586918354034,0.023022068664431572,-0.03268616273999214
1733860956132376800,1.229376953125,-0.06967771798372269,0.020278234034776688,-0.03745925799012184
1733860956142328000,1.239328125,-0.04496331885457039,0.016117045655846596,-0.04414379224181175
1733860956152278800,1.24927880859375,-0.0198419988155365,0.011132404208183289,-0.04952029883861542
1733860956162230000,1.25922998046875,0.0033730431459844112,0.0036169635131955147,-0.05712096020579338
1733860956172180000,1.269179931640625,0.026785651221871376,-0.010654924437403679,-0.06777103245258331
1733860956182130700,1.279130615234375,0.04322880879044533,-0.031206006184220314,-0.08536147326231003
1733860956192082000,1.28908203125,0.056515246629714966,-0.058211009949445724,-0.11095057427883148
1733860956202033200,1.299033203125,0.059882014989852905,-0.09791181236505508,-0.13618722558021545
1733860956211982800,1.30898291015625,0.06560739129781723,-0.1589551717042923,-0.1628604382276535
1733860956221933800,1.318933837890625,0.0770624428987503,-0.24232596158981323,-0.16217681765556335
1733860956231885000,1.328885009765625,0.08784256875514984,-0.2953644394874573,-0.1489885300397873
1733860956241835800,1.338835693359375,0.09791863709688187,-0.3015248477458954,-0.13694918155670166
1733860956251786000,1.348785888671875,0.10704430937767029,-0.2773457467556,-0.12757329642772675
1733860956261737000,1.358737060546875,0.11686258763074875,-0.2555815875530243,-0.11455203592777252
1733860956271688000,1.36868798828125,0.13517174124717712,-0.2510981559753418,-0.09770413488149643
1733860956281639000,1.378638916015625,0.15231558680534363,-0.2573044002056122,-0.07171753793954849
1733860956291589000,1.388589111328125,0.16172072291374207,-0.257406085729599,-0.0431830957531929
1733860956301539800,1.398539794921875,0.15982136130332947,-0.23935306072235107,-0.016416728496551514
1733860956311491000,1.408490966796875,0.15406222641468048,-0.21513241529464722,0.005985363386571407
1733860956321441800,1.41844189453125,0.14659738540649414,-0.20248612761497498,0.026530586183071136
1733860956331392000,1.42839208984375,0.13919594883918762,-0.19109711050987244,0.0351279191672802
1733860956341343000,1.438343017578125,0.1305827498435974,-0.1708110123872757,0.053415313363075256
1733860956351294000,1.4482939453125,0.12045948207378387,-0.1409894824028015,0.06762552261352539
1733860956361245000,1.458244873046875,0.11045398563146591,-0.10249108821153641,0.07377662509679794
1733860956371195000,1.46819482421875,0.09952597320079803,-0.06488725543022156,0.07621922343969345
1733860956381145900,1.478145751953125,0.08731217682361603,-0.046104516834020615,0.08123421669006348
1733860956391096800,1.488096923828125,0.07326418161392212,-0.03599303960800171,0.07887841761112213
1733860956401048000,1.498048095703125,0.05815580487251282,-0.029042193666100502,0.0705813392996788
1733860956410998800,1.507998779296875,0.04833652451634407,-0.017540518194437027,0.05528547242283821
1733860956420949000,1.517948974609375,0.0430472195148468,-0.013287984766066074,0.042434923350811005
1733860956430900000,1.52789990234375,0.04532180353999138,-0.008889244869351387,0.039400871843099594
1733860956440851000,1.537850830078125,0.04790320619940758,0.0014552720822393894,0.04186456277966499
1733860956450802000,1.547802001953125,0.044969942420721054,0.02096744254231453,0.037676211446523666
1733860956460752100,1.557752197265625,0.03701481223106384,0.035559430718421936,0.029121339321136475
1733860956470702800,1.567702880859375,0.026756923645734787,0.05306787043809891,0.022744515910744667
1733860956480654000,1.577654052734375,0.01745663210749626,0.07664509862661362,0.01394889410585165
1733860956490604800,1.587604736328125,0.0008883276022970676,0.09845186024904251,-0.0012908678036183119
1733860956500555000,1.597554931640625,-0.01673593930900097,0.11555761098861694,-0.016369687393307686
1733860956510506000,1.607506103515625,-0.03956316411495209,0.12459558993577957,-0.029156051576137543
1733860956520457000,1.61745703125,-0.06049667298793793,0.1252344846725464,-0.03960496559739113
1733860956530408000,1.627407958984375,-0.08057955652475357,0.1248302236199379,-0.05086389183998108
1733860956540358000,1.63735791015625,-0.09651245176792145,0.1245655044913292,-0.05750555172562599
1733860956550308900,1.647308837890625,-0.1056346446275711,0.1104440838098526,-0.06701996177434921
1733860956560259800,1.657259765625,-0.10529960691928864,0.08165904134511948,-0.07177690416574478
1733860956570210800,1.6672109375,-0.09745743125677109,0.054687339812517166,-0.07124530524015427
1733860956580160800,1.677160888671875,-0.09198702871799469,0.03465424105525017,-0.07063517719507217
1733860956590112000,1.687112060546875,-0.08662518113851547,0.017900310456752777,-0.07597045600414276
1733860956600062700,1.697062744140625,-0.08473407477140427,-0.011674094013869762,-0.0806882455945015
1733860956610014000,1.707013916015625,-0.08158489316701889,-0.04844861850142479,-0.0832366868853569
1733860956619964000,1.7169638671875,-0.07716085016727448,-0.0764770582318306,-0.08447452634572983
1733860956629915000,1.726914794921875,-0.07258034497499466,-0.09725106507539749,-0.08148545026779175
1733860956639865900,1.736865966796875,-0.0692649781703949,-0.12075585871934891,-0.07633569836616516
1733860956649817000,1.746817138671875,-0.059951864182949066,-0.1358000487089157,-0.06857096403837204
1733860956659767000,1.75676708984375,-0.049727991223335266,-0.14567504823207855,-0.059251222759485245
1733860956669718000,1.766718017578125,-0.037105727940797806,-0.15582570433616638,-0.05331950634717941
1733860956679669000,1.7766689453125,-0.026582244783639908,-0.15637058019638062,-0.04752926155924797
1733860956689619700,1.78661962890625,-0.02585488371551037,-0.14796030521392822,-0.04190685600042343
1733860956699569700,1.796569580078125,-0.02537471614778042,-0.13927680253982544,-0.04025596007704735
1733860956709521000,1.80652099609375,-0.02211853489279747,-0.13560059666633606,-0.03891671821475029
1733860956719471600,1.8164716796875,-0.016139205545186996,-0.13163861632347107,-0.040922876447439194
1733860956729422800,1.8264228515625,-0.013910599052906036,-0.11589398980140686,-0.04486370459198952
1733860956739373800,1.836373779296875,-0.019793521612882614,-0.10071024298667908,-0.05764288082718849
1733860956749323800,1.84632373046875,-0.022395716980099678,-0.08609215170145035,-0.06487167626619339
1733860956759274800,1.856274658203125,-0.026053834706544876,-0.07168471068143845,-0.07339805364608765
1733860956769225700,1.866225830078125,-0.02281891368329525,-0.06398419290781021,-0.08674146980047226
1733860956779176700,1.8761767578125,-0.022734224796295166,-0.06932276487350464,-0.09773499518632889
1733860956789127000,1.886126953125,-0.024456538259983063,-0.08197784423828125,-0.10501809418201447
1733860956799077600,1.89607763671875,-0.023676764219999313,-0.10662593692541122,-0.10518107563257217
1733860956809028900,1.90602880859375,-0.012687735259532928,-0.12801112234592438,-0.09343576431274414
1733860956818979800,1.915979736328125,0.00526250246912241,-0.13796788454055786,-0.07345806062221527
1733860956828929800,1.9259296875,0.011707959696650505,-0.12525659799575806,-0.06063482537865639
1733860956838880800,1.935880859375,0.006090553477406502,-0.10525918751955032,-0.057794295251369476
1733860956848832000,1.94583203125,-0.0020140784326940775,-0.08804745972156525,-0.05978509783744812
1733860956858782700,1.95578271484375,-0.010156426578760147,-0.08261513710021973,-0.05937843397259712
1733860956868732700,1.965732666015625,-0.01986365020275116,-0.08365217596292496,-0.05642951279878616
1733860956878684000,1.975683837890625,-0.034041520208120346,-0.08931325376033783,-0.05949454754590988
1733860956888635000,1.985634765625,-0.04627382010221481,-0.09483476728200912,-0.05801909789443016
1733860956898585900,1.9955859375,-0.045452237129211426,-0.10708264261484146,-0.04472193494439125
1733860956908535800,2.005535888671875,-0.03979232907295227,-0.11080017685890198,-0.02559046447277069
1733860956918486800,2.01548681640625,-0.038972608745098114,-0.09713815897703171,-0.016480855643749237
1733860956928437800,2.025437744140625,-0.04120028391480446,-0.07158883661031723,-0.014329556375741959
1733860956938388700,2.035388671875,-0.047134336084127426,-0.0424722321331501,-0.022427963092923164
1733860956948338700,2.045338623046875,-0.05075230449438095,-0.03114369325339794,-0.03672434389591217
1733860956958290000,2.0552900390625,-0.05544079840183258,-0.03276316076517105,-0.05154456943273544
1733860956968240600,2.06524072265625,-0.06528650969266891,-0.0379861555993557,-0.059281911700963974
1733860956978192000,2.07519189453125,-0.07386002689599991,-0.04166983813047409,-0.06096290051937103
1733860956988142800,2.085142822265625,-0.08171360939741135,-0.03978510573506355,-0.061277564615011215
1733860956998092800,2.0950927734375,-0.08711476624011993,-0.03916032612323761,-0.04897908493876457
1733860957008043800,2.105043701171875,-0.08560828864574432,-0.030876046046614647,-0.031211867928504944
1733860957017995000,2.1149951171875,-0.07995306700468063,-0.010895412415266037,-0.010325492359697819
1733860957027945700,2.12494580078125,-0.06938387453556061,0.02339121699333191,0.020028837025165558
1733860957037896000,2.13489599609375,-0.060458287596702576,0.06325900554656982,0.05097902566194534
1733860957047847000,2.144846923828125,-0.050182633101940155,0.09822655469179153,0.06831943243741989
1733860957057798000,2.1547978515625,-0.04260833561420441,0.12694953382015228,0.08068395406007767
1733860957067748900,2.164748779296875,-0.034701183438301086,0.15325970947742462,0.09638266265392303
1733860957077698800,2.17469873046875,-0.0332321859896183,0.17007197439670563,0.10616259276866913
1733860957087649800,2.18464990234375,-0.035003773868083954,0.17249304056167603,0.10751953721046448
1733860957097600800,2.194600830078125,-0.036754265427589417,0.17204615473747253,0.10528914630413055
1733860957107551700,2.2045517578125,-0.045494671911001205,0.17115135490894318,0.09204792976379395
1733860957117501700,2.214501708984375,-0.051209814846515656,0.1596052199602127,0.07326439023017883
1733860957127453000,2.224452880859375,-0.05509600415825844,0.14082911610603333,0.05603146553039551
1733860957137403600,2.234403564453125,-0.058691270649433136,0.12534309923648834,0.04124852269887924
1733860957147355000,2.24435498046875,-0.07017305493354797,0.11709372699260712,0.02689315751194954
1733860957157304800,2.254304931640625,-0.08161213248968124,0.10859797149896622,0.008539717644453049
1733860957167255800,2.264255859375,-0.09262247383594513,0.09331516176462173,-0.008672322146594524
1733860957177206800,2.274206787109375,-0.10296938568353653,0.07022182643413544,-0.022264298051595688
1733860957187157800,2.28415771484375,-0.10887153446674347,0.04677693545818329,-0.03065340220928192
1733860957197107700,2.294107666015625,-0.11578749120235443,0.028813917189836502,-0.03902611508965492
1733860957207059000,2.304058837890625,-0.11941471695899963,0.008257243782281876,-0.044450972229242325
1733860957217009700,2.314009765625,-0.12330373376607895,-0.012844579294323921,-0.05700751021504402
1733860957226961000,2.3239609375,-0.12469945102930069,-0.03652406856417656,-0.0747687816619873
1733860957236911900,2.333911865234375,-0.13250118494033813,-0.06842739880084991,-0.09579843282699585
1733860957246861800,2.34386181640625,-0.14007948338985443,-0.10052995383739471,-0.1117168590426445
1733860957256812800,2.353812744140625,-0.1409255713224411,-0.1341576725244522,-0.12034949660301208
1733860957266764000,2.363763916015625,-0.13614705204963684,-0.16929249465465546,-0.12868954241275787
1733860957276714800,2.37371484375,-0.13089023530483246,-0.210178405046463,-0.13728436827659607
1733860957286664700,2.383664794921875,-0.12417173385620117,-0.24945978820323944,-0.14282533526420593
1733860957296616000,2.393615966796875,-0.11280855536460876,-0.284289687871933,-0.13880422711372375
1733860957306566700,2.403566650390625,-0.09407952427864075,-0.30623918771743774,-0.13306279480457306
1733860957316518000,2.413517822265625,-0.0724213719367981,-0.3113745450973511,-0.11898160725831985
1733860957326467800,2.4234677734375,-0.050352126359939575,-0.3053150773048401,-0.10296789556741714
1733860957336418800,2.433418701171875,-0.03880998492240906,-0.2908751666545868,-0.09056688100099564
1733860957346369800,2.443369873046875,-0.028597712516784668,-0.27335259318351746,-0.07617729902267456
1733860957356320800,2.45332080078125,-0.014704534783959389,-0.2586980164051056,-0.0506058931350708
1733860957366270700,2.463270751953125,0.0021362113766372204,-0.23397056758403778,-0.02535291016101837
1733860957376222000,2.473221923828125,0.016087180003523827,-0.19612360000610352,-0.00026540178805589676
1733860957386172700,2.483172607421875,0.029581893235445023,-0.14728708565235138,0.022348301485180855
1733860957396124000,2.4931240234375,0.04738858714699745,-0.09569846838712692,0.0442940779030323
1733860957406073900,2.503073974609375,0.06404807418584824,-0.049193792045116425,0.06505658477544785
1733860957416024800,2.51302490234375,0.0772823840379715,0.006829528138041496,0.06578655540943146
1733860957425975800,2.522975830078125,0.07788582146167755,0.059512972831726074,0.061099838465452194
1733860957435927000,2.532927001953125,0.06872215121984482,0.09696020931005478,0.05474207550287247
1733860957445876700,2.542876708984375,0.06262831389904022,0.11761382222175598,0.05427607521414757
1733860957455827700,2.55282763671875,0.05622021481394768,0.1259135752916336,0.05289123207330704
1733860957465779000,2.562779052734375,0.04405662417411804,0.12438546866178513,0.05146709457039833
1733860957475729700,2.572729736328125,0.0342511311173439,0.11931826919317245,0.03509664162993431
1733860957485681000,2.582680908203125,0.02054671011865139,0.09929449111223221,0.028575357049703598
1733860957495630800,2.592630859375,0.01410905085504055,0.07562697678804398,0.01853364333510399
1733860957505581800,2.602581787109375,0.008496119640767574,0.05709828808903694,0.00039411475881934166
1733860957515532800,2.61253271484375,-0.006191214080899954,0.018366605043411255,-0.010746954008936882
1733860957525483800,2.62248388671875,-0.011443886905908585,-0.012230751104652882,-0.01651860401034355
1733860957535433700,2.632433837890625,-0.016370203346014023,-0.021664200350642204,-0.014335878193378448
1733860957545385000,2.642385009765625,-0.0247564148157835,-0.025231480598449707,-0.006118465680629015
1733860957555335700,2.652335693359375,-0.02920522540807724,-0.018916059285402298,-0.013528712093830109
1733860957565287000,2.662286865234375,-0.03480134531855583,-0.009127350524067879,-0.025910722091794014
1733860957575236900,2.67223681640625,-0.038917262107133865,-0.015202021226286888,-0.026267319917678833
1733860957585187800,2.682187744140625,-0.03705449029803276,-0.03450464829802513,-0.02361239679157734
1733860957595138800,2.692138916015625,-0.03991419076919556,-0.0402807779610157,-0.02084803581237793
1733860957605089800,2.70208984375,-0.043498143553733826,-0.040079403668642044,-0.022939257323741913
1733860957615039700,2.712039794921875,-0.04508805274963379,-0.03766524791717529,-0.03297404944896698
1733860957624990700,2.72199072265625,-0.0460483655333519,-0.04327838867902756,-0.04266425967216492
1733860957634941700,2.731941650390625,-0.050295837223529816,-0.05795932561159134,-0.049337342381477356
1733860957644892700,2.741892578125,-0.05460251122713089,-0.0717926025390625,-0.05344757065176964
1733860957654843000,2.7518427734375,-0.05638576298952103,-0.08065799623727798,-0.04946960508823395
1733860957664793900,2.7617939453125,-0.056236330419778824,-0.0864090844988823,-0.048899926245212555
1733860957674744800,2.771744873046875,-0.041992947459220886,-0.08941792696714401,-0.037407856434583664
1733860957684695800,2.78169580078125,-0.0262967087328434,-0.07932532578706741,-0.030106183141469955
1733860957694649900,2.79164990234375,-0.01594393700361252,-0.07121360301971436,-0.029812969267368317
1733860957704599800,2.801599853515625,-0.007969366386532784,-0.06279268860816956,-0.033541660755872726
1733860957714551000,2.811551025390625,-0.00018228357657790184,-0.057497791945934296,-0.03630495443940163
1733860957724502000,2.821501953125,0.002403372898697853,-0.04849391058087349,-0.03557104989886284
1733860957734453000,2.831452880859375,0.0019676797091960907,-0.042691148817539215,-0.034938547760248184
1733860957744403000,2.84140283203125,0.0026355539448559284,-0.03942719101905823,-0.031036630272865295
1733860957754354000,2.85135400390625,0.0012429868802428246,-0.041509777307510376,-0.029662705957889557
1733860957764305000,2.861304931640625,0.00031015509739518166,-0.03974009305238724,-0.02693204954266548
1733860957774255900,2.871255859375,0.00627350527793169,-0.03518529236316681,-0.018838437274098396
1733860957784205800,2.881205810546875,0.012017916887998581,-0.03308432921767235,-0.01033306960016489
1733860957794157000,2.891156982421875,0.017803367227315903,-0.031618792563676834,-0.0028746204916387796
1733860957804108000,2.90110791015625,0.019482102245092392,-0.026047488674521446,-0.0011798362247645855
1733860957814059000,2.91105908203125,0.01873641647398472,-0.01709660328924656,0.004590168595314026
1733860957824009000,2.921009033203125,0.018969181925058365,-0.01177107822149992,0.009253421798348427
1733860957833960000,2.9309599609375,0.018720177933573723,-0.012066156603395939,0.01655740663409233
1733860957843911000,2.940910888671875,0.022272543981671333,-0.019074006006121635,0.022447021678090096
1733860957853862100,2.950862060546875,0.02417910099029541,-0.03396506980061531,0.025393011048436165
1733860957863812000,2.96081201171875,0.03354845941066742,-0.05394381284713745,0.024576030671596527
1733860957873763000,2.97076318359375,0.03881513327360153,-0.07870455831289291,0.017097342759370804
1733860957883714000,2.980714111328125,0.04326524958014488,-0.10440858453512192,0.00971914455294609
1733860957893665000,2.9906650390625,0.04337470605969429,-0.13435183465480804,-0.000743082957342267
1733860957903615000,3.000614990234375,0.039627447724342346,-0.16312700510025024,-0.01240734662860632
1733860957913566000,3.01056591796875,0.03796936199069023,-0.18758201599121094,-0.0247697401791811
1733860957923517000,3.020516845703125,0.03620286285877228,-0.20846226811408997,-0.03376027196645737
1733860957933468000,3.030468017578125,0.03159666061401367,-0.22504711151123047,-0.044883497059345245
1733860957943419000,3.0404189453125,0.025920430198311806,-0.23897916078567505,-0.05292195454239845
1733860957953368800,3.050368896484375,0.023558737710118294,-0.25044143199920654,-0.0642947256565094
1733860957963320000,3.060320068359375,0.02060472033917904,-0.2542888820171356,-0.07468432933092117
1733860957973270800,3.070270751953125,0.01646297238767147,-0.256574422121048,-0.08531540632247925
1733860957983222000,3.080221923828125,0.012368163093924522,-0.2570936977863312,-0.09238151460886002
1733860957993172000,3.090171875,0.005388817749917507,-0.25769931077957153,-0.09767480939626694
1733860958003123000,3.100123046875,0.00008470751345157623,-0.25600719451904297,-0.09915773570537567
1733860958013074000,3.110073974609375,-0.0029377141036093235,-0.24696947634220123,-0.09481120109558105
1733860958023025200,3.120025146484375,-0.005285505671054125,-0.23012550175189972,-0.0908210501074791
1733860958032974800,3.129974853515625,-0.010585462674498558,-0.20806573331356049,-0.0888977125287056
1733860958042926000,3.139926025390625,-0.012203352525830269,-0.18799591064453125,-0.08357981592416763
1733860958052877000,3.149876953125,-0.010770571418106556,-0.1683250069618225,-0.0757831484079361
1733860958062828000,3.159828125,-0.008202794939279556,-0.1484873741865158,-0.06494715809822083
1733860958072778000,3.169778076171875,-0.00649704085662961,-0.1290673464536667,-0.05219567194581032
1733860958082729000,3.17972900390625,-0.004266053903847933,-0.10574017465114594,-0.04199390858411789
1733860958092680000,3.189679931640625,0.0005217771977186203,-0.08010538667440414,-0.0297795869410038
1733860958102631200,3.199631103515625,0.007203667424619198,-0.055470339953899384,-0.015652673318982124
1733860958112582000,3.209581787109375,0.012014933861792088,-0.036574944853782654,-0.0042721861973404884
1733860958122531800,3.21953173828125,0.01576831005513668,-0.021915864199399948,0.006875044200569391
1733860958132483000,3.229483154296875,0.0229782871901989,-0.01776612550020218,0.011552087962627411
1733860958142433800,3.239433837890625,0.030968129634857178,-0.020751502364873886,0.01375806424766779
1733860958152385000,3.249385009765625,0.03888437896966934,-0.03064940869808197,0.012656314298510551
1733860958162335000,3.2593349609375,0.041853535920381546,-0.04004929959774017,0.007766484282910824
1733860958172286000,3.269285888671875,0.04229428991675377,-0.04611997678875923,0.0030694673769176006
1733860958182237000,3.27923681640625,0.04043487086892128,-0.04339636117219925,-0.003243023296818137
1733860958192188000,3.28918798828125,0.03652588278055191,-0.03749452903866768,-0.005561305209994316
1733860958202137900,3.299137939453125,0.029405627399683,-0.03283959999680519,-0.009347757324576378
1733860958212089000,3.309089111328125,0.02666230872273445,-0.03367583081126213,-0.012071371078491211
1733860958222040000,3.3190400390625,0.02152249962091446,-0.03177005052566528,-0.011388509534299374
1733860958231991000,3.328990966796875,0.018651079386472702,-0.020246287807822227,-0.013110509142279625
1733860958241941000,3.33894091796875,0.010311445221304893,-0.0011437558569014072,-0.008968566544353962
1733860958251892000,3.34889208984375,0.004058875609189272,0.010958978906273842,-0.002945028943940997
1733860958261843000,3.358843017578125,0.0002048867754638195,0.015033923089504242,0.0026901743840426207
1733860958271794200,3.368794189453125,-0.0029594809748232365,0.014435243792831898,0.002959686331450939
1733860958281745000,3.378744873046875,-0.007291372399777174,0.014475459232926369,0.004826887510716915
1733860958291694800,3.38869482421875,-0.014213726855814457,0.015786001458764076,0.008806982077658176
1733860958301646000,3.39864599609375,-0.02017119899392128,0.021501148119568825,0.016589447855949402
1733860958311596800,3.4085966796875,-0.01915919780731201,0.02834280952811241,0.025590665638446808
1733860958321548000,3.418548095703125,-0.02042665332555771,0.03534664213657379,0.03602493181824684
1733860958331498000,3.428498046875,-0.011551138013601303,0.04203597083687782,0.03987107053399086
1733860958341449000,3.438448974609375,-0.004924893844872713,0.046234987676143646,0.04390152543783188
1733860958351400000,3.44839990234375,0.0020198309794068336,0.047913841903209686,0.04468955472111702
1733860958361351000,3.458350830078125,0.01074865460395813,0.04773249104619026,0.03956151753664017
1733860958371300900,3.46830078125,0.018971696496009827,0.043959856033325195,0.03110544942319393
1733860958381252000,3.478252197265625,0.018244288861751556,0.04003380239009857,0.02679184451699257
1733860958391202800,3.488202880859375,0.015531327575445175,0.042333975434303284,0.020882556214928627
1733860958401154000,3.498154052734375,0.013911319896578789,0.04249562695622444,0.016353527083992958
1733860958411104000,3.50810400390625,0.012574680149555206,0.040773361921310425,0.00974702276289463
1733860958421055000,3.518054931640625,0.0071144443936645985,0.028579289093613625,0.0035561169497668743
1733860958431006000,3.528005859375,0.0023646969348192215,0.02452223002910614,-0.0035742304753512144
1733860958440957200,3.537957275390625,0.001354521606117487,0.026213860139250755,-0.007296883035451174
1733860958450908000,3.547907958984375,0.0013928711414337158,0.030544959008693695,-0.009540596976876259
1733860958460857900,3.55785791015625,0.0004418129101395607,0.028064744547009468,-0.011527190916240215
1733860958470809000,3.56780908203125,0.001418660394847393,0.019480310380458832,-0.008049635216593742
1733860958480759800,3.577759765625,-0.0018801280530169606,0.012063692323863506,-0.007006363477557898
1733860958490711000,3.5877109375,-0.0033334149047732353,0.009088941849768162,-0.004840947687625885
1733860958500661000,3.597660888671875,-0.007636613212525845,0.00755947083234787,0.0021830869372934103
1733860958510612000,3.607612060546875,-0.006010754033923149,0.004153554327785969,0.0033972221426665783
1733860958520563000,3.61756298828125,-0.00473667262122035,0.00014603696763515472,0.007021218538284302
1733860958530514000,3.627513916015625,-0.003781396895647049,-0.007021594792604446,0.005637973081320524
1733860958540463900,3.6374638671875,0.0015407954342663288,-0.014655249193310738,0.00343218888156116
1733860958550415000,3.6474150390625,0.008253825828433037,-0.02338855341076851,0.0003991147968918085
1733860958560365800,3.65736572265625,0.011086473241448402,-0.025760136544704437,-0.0024974187836050987
1733860958570317000,3.667317138671875,0.014423681423068047,-0.023597383871674538,-0.004696656949818134
1733860958580267000,3.67726708984375,0.012121194042265415,-0.01921646110713482,-0.007059183903038502
1733860958590218000,3.687218017578125,0.008671335875988007,-0.02083539590239525,-0.006680749356746674
1733860958600169000,3.6971689453125,0.0074555762112140656,-0.025087937712669373,-0.00887223333120346
1733860958610120000,3.707119873046875,0.002120998688042164,-0.029432086274027824,-0.010151349008083344
1733860958620071000,3.71707080078125,0.001974610611796379,-0.02790900506079197,-0.010453118942677975
1733860958630020900,3.727020751953125,0.0023919278755784035,-0.023378435522317886,-0.009731401689350605
1733860958639972000,3.73697216796875,0.002554746810346842,-0.016748540103435516,-0.008597088977694511
1733860958649923000,3.746923095703125,0.0036583603359758854,-0.01436660811305046,-0.010772093199193478
1733860958659874000,3.7568740234375,0.006295010447502136,-0.014175092801451683,-0.011928390711545944
1733860958669824000,3.766823974609375,0.00862820539623499,-0.017666231840848923,-0.009099847637116909
1733860958679775000,3.77677490234375,0.013400235213339329,-0.016194859519600868,-0.006633249577134848
1733860958689723100,3.78672314453125,0.018389135599136353,-0.008994470350444317,-0.005051597952842712
1733860958699673900,3.796673828125,0.024279551580548286,0.010867662727832794,0.0019741717260330915
1733860958709623800,3.806623779296875,0.028309179469943047,0.030061064288020134,0.0018639169866219163
1733860958719575000,3.816574951171875,0.03465555980801582,0.04585442692041397,-0.0023635299876332283
1733860958729526000,3.826526123046875,0.03632749244570732,0.0566713847219944,-0.00416515814140439
1733860958739477000,3.83647705078125,0.0411514937877655,0.06248345971107483,-0.001490957336500287
1733860958749427000,3.846427001953125,0.04698435217142105,0.06603824347257614,0.002312303055077791
1733860958759378000,3.8563779296875,0.04959272965788841,0.0693536326289177,0.0033135595731437206
1733860958769329000,3.866328857421875,0.04962149262428284,0.07415078580379486,-0.0008830495644360781
1733860958779280000,3.87627978515625,0.04751906543970108,0.07465888559818268,-0.004000065382570028
1733860958789230800,3.88623095703125,0.039852626621723175,0.07040581852197647,0.002825616393238306
1733860958799181000,3.89618115234375,0.03361150622367859,0.06535273790359497,0.013342971913516521
1733860958809131800,3.9061318359375,0.029218891635537148,0.06427814811468124,0.024094419553875923
1733860958819083000,3.9160830078125,0.0257859006524086,0.0667024478316307,0.027033505961298943
1733860958829033700,3.92603369140625,0.02068381756544113,0.06353568285703659,0.02858932502567768
1733860958838984000,3.93598388671875,0.01570551097393036,0.048290934413671494,0.030190687626600266
1733860958848935000,3.945934814453125,0.011025804094970226,0.023739786818623543,0.029041534289717674
1733860958858886000,3.955885986328125,0.009264104068279266,-0.0030239217448979616,0.02183138206601143
1733860958868836900,3.9658369140625,0.007264336105436087,-0.025952408090233803,0.01353643462061882
1733860958878787000,3.975787109375,0.008417543023824692,-0.0412871390581131,0.007674280554056168
1733860958888737800,3.98573779296875,0.014199266210198402,-0.04805263131856918,-0.0038225860334932804
1733860958898689000,3.99568896484375,0.017289884388446808,-0.04899565503001213,-0.012080872431397438
1733860958908640000,4.005639892578125,0.019066479057073593,-0.041310038417577744,-0.02093348652124405
1733860958918591000,4.015591064453125,0.01872430182993412,-0.03700316697359085,-0.019791167229413986
1733860958928541000,4.025541015625,0.013990798965096474,-0.03141212463378906,-0.01595142111182213
1733860958938492000,4.035491943359375,0.003510129638016224,-0.023635443300008774,-0.012729054316878319
1733860958948443000,4.04544287109375,-0.004730223678052425,-0.019074780866503716,-0.013328531756997108
1733860958958394000,4.05539404296875,-0.015018319711089134,-0.010473579168319702,-0.014008255675435066
1733860958968344000,4.065343994140625,-0.01750997267663479,-0.003997303545475006,-0.009691005572676659
1733860958978294800,4.075294677734375,-0.020509712398052216,-0.00035408814437687397,-0.004471331834793091
1733860958988246000,4.08524609375,-0.018220193684101105,-0.0009085582569241524,0.005739493761211634
1733860958998196700,4.09519677734375,-0.009774750098586082,0.0026214674580842257,0.013769426383078098
1733860959008147000,4.10514697265625,-0.010685284622013569,0.03202143311500549,0.0214499831199646
1733860959018098000,4.115097900390625,-0.026258710771799088,0.05194346234202385,0.01623525097966194
1733860959028049000,4.125048828125,-0.028308279812335968,0.050890181213617325,0.004110144451260567
1733860959037999900,4.134999755859375,-0.004833287559449673,0.028423229232430458,-0.018420761451125145
1733860959047950000,4.1449501953125,0.01652419939637184,0.008194124326109886,-0.0345081202685833
1733860959057900800,4.15490087890625,0.02844533883035183,-0.017205234616994858,-0.03819843381643295
1733860959067852000,4.16485205078125,0.033053141087293625,-0.02485276758670807,-0.03198155015707016
1733860959077803000,4.174802978515625,0.027585119009017944,-0.01445525698363781,-0.027760883793234825
1733860959087754000,4.18475390625,0.016022738069295883,0.0037615622859448195,-0.010447407141327858
1733860959097704000,4.194703857421875,-0.0009026618208736181,0.015605715103447437,0.006260673049837351
1733860959107655200,4.2046552734375,-0.016449397429823875,0.019715506583452225,0.013307398185133934
1733860959117606000,4.21460595703125,-0.02495354413986206,0.019761810079216957,0.01523636281490326
1733860959127557000,4.22455712890625,-0.018409892916679382,0.007594892755150795,0.012207815423607826
1733860959137507000,4.234507080078125,-0.014569824561476707,-0.017655586823821068,0.009065280668437481
1733860959147457800,4.244457763671875,-0.0054647428914904594,-0.0420280359685421,0.0060513811185956
1733860959157409000,4.254408935546875,-0.0028921859338879585,-0.060395341366529465,-0.0016161203384399414
1733860959167359700,4.26435986328125,-0.0048024714924395084,-0.067549929022789,-0.005990362260490656
1733860959177310000,4.27431005859375,-0.005789889022707939,-0.058482639491558075,-0.010025354102253914
1733860959187261000,4.284260986328125,-0.013234755024313927,-0.03672327846288681,-0.01120486855506897
1733860959197212000,4.2942119140625,-0.018281172960996628,-0.012305021286010742,-0.009114760905504227
1733860959207163000,4.304162841796875,-0.018183967098593712,-0.0017727524973452091,-0.00874404888600111
1733860959217113000,4.314113037109375,-0.01894383877515793,-0.0028830424416810274,-0.006298048421740532
1733860959227063800,4.324063720703125,-0.013155990280210972,-0.009397401474416256,-0.0053385114297270775
1733860959237015000,4.33401513671875,-0.009800901636481285,-0.015461142174899578,-0.008286545053124428
1733860959246965800,4.3439658203125,-0.0019416470313444734,-0.020474009215831757,-0.010278590023517609
1733860959256917000,4.3539169921875,0.004650741815567017,-0.019972270354628563,-0.01401553861796856
1733860959266867000,4.363866943359375,0.007772499695420265,-0.019333643838763237,-0.01637136936187744
1733860959276818000,4.37381787109375,0.010214644484221935,-0.016890721395611763,-0.011979581788182259
1733860959286769000,4.383768798828125,0.007624453864991665,-0.010115106590092182,-0.008242634125053883
1733860959296720100,4.39372021484375,0.0032928287982940674,0.004946935456246138,0.00018073664978146553
1733860959306669800,4.403669921875,-0.0006137622985988855,0.015914632007479668,0.004551783204078674
1733860959316620800,4.413620849609375,-0.006772774271667004,0.017452016472816467,0.012010612525045872
1733860959326572000,4.423572021484375,-0.008712087757885456,0.01800755225121975,0.009941868484020233
1733860959336522800,4.433522705078125,-0.01064598560333252,0.012140906415879726,0.007899561896920204
1733860959346473000,4.443472900390625,-0.011692874133586884,0.00414343411102891,0.007530181668698788
1733860959356424000,4.453423828125,-0.010474128648638725,-0.004429258871823549,0.004583623260259628
1733860959366375000,4.463375,-0.0079108364880085,-0.014333022758364677,0.0024110162630677223
1733860959376326000,4.473325927734375,-0.00655793771147728,-0.024589916691184044,-0.0017183634918183088
1733860959386276900,4.48327685546875,-0.005095063708722591,-0.028493311256170273,-0.0051919249817729
1733860959396226800,4.493226806640625,-0.006698109209537506,-0.029299741610884666,-0.0070417788811028
1733860959406178000,4.503177978515625,-0.006964691914618015,-0.021885767579078674,-0.006449491251260042
1733860959416128800,4.513128662109375,-0.006973480340093374,-0.016116827726364136,-0.003599376417696476
1733860959426080000,4.523080078125,-0.011456208303570747,-0.01581105776131153,0.0009971722029149532
1733860959436030000,4.533030029296875,-0.011929546482861042,-0.018334422260522842,-0.0013011640403419733
1733860959445981000,4.54298095703125,-0.008784620091319084,-0.022727040573954582,-0.004053540527820587
1733860959455932000,4.552931884765625,-0.0063619292341172695,-0.023575253784656525,-0.009465765208005905
1733860959465883100,4.562883056640625,-0.005785354878753424,-0.021756313741207123,-0.009524621069431305
1733860959475832800,4.572832763671875,-0.007539871148765087,-0.014394278638064861,-0.00851605087518692
1733860959485783800,4.58278369140625,-0.010451238602399826,-0.006176562048494816,0.000229503377340734
1733860959495735000,4.592735107421875,-0.009823272004723549,-0.0003474366385489702,0.007147005759179592
1733860959505686000,4.60268603515625,-0.007399262860417366,-0.002014042576774955,0.012302085757255554
1733860959515636000,4.612635986328125,-0.0059251440688967705,-0.0034129878040403128,0.011901011690497398
1733860959525587000,4.6225869140625,-0.0061930580995976925,0.0004885431844741106,0.015147404745221138
1733860959535538000,4.632537841796875,-0.0038876188918948174,0.010964605957269669,0.015793757513165474
1733860959545489000,4.642489013671875,-0.0009959584567695856,0.01952986605465412,0.017109625041484833
1733860959555439900,4.65243994140625,0.004174252040684223,0.025398658588528633,0.020541705191135406
1733860959565389800,4.662389892578125,0.007740491069853306,0.019751425832509995,0.019799215719103813
1733860959575341000,4.672341064453125,0.009061919525265694,0.01293159369379282,0.021548086777329445
1733860959585291800,4.682291748046875,0.009398277848958969,0.004145026206970215,0.019382404163479805
1733860959595243000,4.692242919921875,0.008519496768712997,0.004168746992945671,0.016864437609910965
1733860959605193000,4.70219287109375,0.004438468720763922,0.008167482912540436,0.012757310643792152
1733860959615144000,4.71214404296875,0.006125234067440033,0.011284155771136284,0.010693401098251343
1733860959625095000,4.722094970703125,0.004730004817247391,0.013901510275900364,0.00790507160127163
1733860959635046000,4.7320458984375,-0.00021802959963679314,0.022930726408958435,0.004480292089283466
1733860959644995800,4.741995849609375,-0.0008995325770229101,0.029357733204960823,0.0017915649805217981
1733860959654947000,4.751947021484375,-0.00041209394112229347,0.033492572605609894,0.005072223022580147
1733860959664897800,4.761897705078125,0.005082806572318077,0.02894868701696396,0.00879532191902399
1733860959674849000,4.77184912109375,0.0077773192897439,0.03013697639107704,0.010691908188164234
1733860959684800000,4.781800048828125,0.007571190595626831,0.0354398638010025,0.01301152165979147
1733860959694750000,4.79175,0.006226599682122469,0.03911609947681427,0.015026023611426353
1733860959704700700,4.80170068359375,0.006992791313678026,0.040037818253040314,0.016941901296377182
1733860959714652000,4.81165185546875,0.005319410935044289,0.03655757009983063,0.016795702278614044
1733860959724602600,4.8216025390625,0.004809415899217129,0.0312858447432518,0.016085436567664146
1733860959734552600,4.831552490234375,0.004974186886101961,0.026062825694680214,0.012712852098047733
1733860959744503800,4.84150390625,0.005589111242443323,0.025169868022203445,0.010026521980762482
1733860959754454500,4.85145458984375,0.000604341272264719,0.02302606590092182,0.006879150401800871
1733860959764405800,4.86140576171875,-0.0012108690571039915,0.01982041820883751,0.007098594680428505
1733860959774355700,4.871355712890625,-0.006180827505886555,0.01803158037364483,0.007128982804715633
1733860959784306700,4.881306640625,-0.00642131082713604,0.013835236430168152,0.007989715784788132
1733860959794257700,4.891257568359375,-0.0055936588905751705,0.007472398225218058,0.009024623781442642
1733860959804208600,4.901208740234375,-0.005931613966822624,0.0021506035700440407,0.004622685723006725
1733860959814158600,4.91115869140625,-0.006477543152868748,-0.0055115725845098495,0.002637741155922413
1733860959824109800,4.92110986328125,-0.0054658083245158195,-0.012567884288728237,0.00148166308645159
1733860959834060500,4.931060546875,-0.0045263078063726425,-0.020569635555148125,-0.00019405060447752476
1733860959844011800,4.94101171875,-0.004992361180484295,-0.021526243537664413,0.002678701188415289
1733860959853962800,4.950962646484375,-0.005342009477317333,-0.025439484044909477,0.0034073092974722385
1733860959863912700,4.96091259765625,0.012207956053316593,-0.0301964208483696,-0.0016777303535491228
1733860959873863700,4.97086376953125,0.011053735390305519,-0.010479179210960865,0.0188948642462492
1733860959883815000,4.98081494140625,-0.026509085670113564,0.022278234362602234,0.03586319461464882
1733860959893765600,4.990765625,-0.030706685036420822,0.02394033409655094,0.01992115192115307
1733860959903715600,5.000715576171875,-0.008674085140228271,0.005090213380753994,-0.0028723112773150206
1733860959913666800,5.010666748046875,-0.0023371647112071514,-0.007292171940207481,-0.026287470012903214
1733860959923617800,5.02061767578125,-0.010747959837317467,-0.029230494052171707,-0.033276401460170746
1733860959933568800,5.03056884765625,-0.0077633364126086235,-0.05635584890842438,-0.0329744890332222
1733860959943518700,5.040518798828125,0.0014155148528516293,-0.06664177775382996,-0.03478730469942093
1733860959953469700,5.0504697265625,0.006228831596672535,-0.04855094850063324,-0.025022253394126892
1733860959963420700,5.060420654296875,0.004465020261704922,-0.019025279209017754,-0.008212911896407604
1733860959973371600,5.07037158203125,-0.0035225441679358482,0.007777056656777859,0.0072760251350700855
1733860959983322600,5.080322509765625,-0.0009169073309749365,0.024263355880975723,0.010792729444801807
1733860959993272800,5.09027294921875,0.006467116996645927,0.01717112399637699,0.009956194087862968
1733860960003223600,5.1002236328125,0.013215034268796444,-0.004838836379349232,0.010064851492643356
1733860960013174800,5.1101748046875,0.018072715029120445,-0.02333587035536766,0.016825387254357338
1733860960023125800,5.120125732421875,0.017649538815021515,-0.025959616526961327,0.024318991228938103
1733860960033075700,5.13007568359375,0.010785385966300964,-0.01402994804084301,0.026785094290971756
1733860960043026700,5.140026611328125,0.001580436248332262,-0.007536628283560276,0.024624470621347427
1733860960052978000,5.14997802734375,-0.003680196823552251,-0.001424695597961545,0.01935538277029991
1733860960062928600,5.1599287109375,-0.008773759007453918,0.00451122410595417,0.014625076204538345
1733860960072878800,5.16987890625,-0.007419116795063019,-0.001704631606116891,0.006706718355417252
1733860960082829800,5.179829833984375,-0.002593202982097864,-0.014612173661589622,0.001090644160285592
1733860960092780800,5.18978076171875,0.004664279520511627,-0.02365490235388279,-0.002041576663032174
1733860960102731800,5.199731689453125,0.0070584611967206,-0.029331961646676064,-0.00640250276774168
1733860960112682800,5.209682861328125,0.005177041981369257,-0.0321841835975647,-0.006697173696011305
1733860960122632700,5.2196328125,-0.002532543381676078,-0.027048541232943535,-0.0022417050786316395
1733860960132583700,5.229583740234375,-0.008596327155828476,-0.015208667144179344,0.0019759146962314844
1733860960142534700,5.23953466796875,-0.01491174753755331,-0.0035842363722622395,0.003980475943535566
1733860960152485600,5.249485595703125,-0.017739219591021538,-0.00042705750092864037,0.004429810214787722
1733860960162435800,5.259435791015625,-0.016686473041772842,0.00000490737147629261,0.0026673302054405212
1733860960172386600,5.269386474609375,-0.015867821872234344,-0.0008584908209741116,0.0007588500156998634
1733860960182337800,5.279337890625,-0.015257160179316998,-0.0008984385058283806,-0.00010827521327883005
1733860960192288500,5.28928857421875,-0.011524798348546028,-0.00026328908279538155,-0.0016094951424747705
1733860960202238700,5.29923876953125,-0.00834072194993496,0.0008951860945671797,-0.0023373370058834553
1733860960212189700,5.309189697265625,-0.002589693758636713,-0.004644743166863918,-0.0030152201652526855
1733860960222140700,5.319140625,0.006806737743318081,-0.006584057584404945,0.0014010999584570527
1733860960232091600,5.329091552734375,0.010099537670612335,-0.006929447874426842,0.006690512876957655
1733860960242041900,5.339041748046875,0.01307828351855278,-0.003460147650912404,0.013156933709979057
1733860960251992600,5.34899267578125,0.01519450917840004,-0.0011341238860040903,0.017948664724826813
1733860960261943800,5.35894384765625,0.015112750232219696,-0.0029581228736788034,0.01950475014746189
1733860960271894800,5.368894775390625,0.011379923671483994,-0.0019727915059775114,0.019175894558429718
1733860960281845800,5.378845703125,0.011773273348808289,-0.005384300835430622,0.01563708484172821
1733860960291795700,5.388795654296875,0.012087605893611908,-0.008259691298007965,0.012207958847284317
1733860960301746700,5.39874658203125,0.01662137173116207,-0.008286322467029095,0.00563953910022974
1733860960311697700,5.40869775390625,0.019800180569291115,-0.004094227217137814,0.004842451307922602
1733860960321649000,5.41864892578125,0.02030511572957039,-0.0012747386936098337,0.0027116560377180576
1733860960331598800,5.428598876953125,0.021459776908159256,0.004250500816851854,0.008099266327917576
1733860960341549600,5.438549560546875,0.0216057188808918,0.016680005937814713,0.011310240253806114
1733860960351500800,5.448500732421875,0.023240191861987114,0.0338267907500267,0.01127937063574791
1733860960361451500,5.458451416015625,0.017241420224308968,0.04851013049483299,0.01633298397064209
1733860960371401700,5.468401611328125,0.015368925407528877,0.060367584228515625,0.02025904878973961
1733860960381352700,5.478352783203125,0.01623498648405075,0.06839994341135025,0.02490120381116867
1733860960391303700,5.4883037109375,0.01854248344898224,0.0771864727139473,0.028361817821860313
1733860960401254700,5.498254638671875,0.0225774385035038,0.0863671824336052,0.03592439740896225
1733860960411206000,5.508205810546875,0.02761968784034252,0.09903107583522797,0.04228511080145836
1733860960421155600,5.518155517578125,0.031738266348838806,0.1114954724907875,0.04802049323916435
1733860960431106800,5.52810693359375,0.03562222048640251,0.1166050136089325,0.05210897698998451
1733860960441057800,5.538057861328125,0.03386027365922928,0.11872196197509766,0.05481981113553047
1733860960451008800,5.5480087890625,0.0322437509894371,0.11403665691614151,0.057265300303697586
1733860960460958700,5.557958740234375,0.027939287945628166,0.10381864011287689,0.056534528732299805
1733860960470910000,5.567909912109375,0.023889988660812378,0.09053933620452881,0.05348077043890953
1733860960480860700,5.577860595703125,0.018265392631292343,0.07302559167146683,0.04786096513271332
1733860960490812000,5.58781201171875,0.016809256747364998,0.051199328154325485,0.038922447711229324
1733860960500761900,5.597761962890625,0.009216051548719406,0.02651236020028591,0.02896541729569435
1733860960510712600,5.607712646484375,-0.0007934991735965014,-0.0009114805143326521,0.019348541274666786
1733860960520663800,5.617663818359375,-0.01418973132967949,-0.02966589666903019,0.009914027526974678
1733860960530614500,5.627614501953125,-0.02625364437699318,-0.06426677107810974,-0.0012973456177860498
1733860960540565800,5.637565673828125,-0.03438827022910118,-0.09671711921691895,-0.010094832628965378
1733860960550515700,5.647515625,-0.035196006298065186,-0.12150848656892776,-0.02015732042491436
1733860960560466700,5.657466796875,-0.035009317100048065,-0.13519605994224548,-0.031028345227241516
1733860960570417700,5.667417724609375,-0.03904052451252937,-0.13957881927490234,-0.038463979959487915
1733860960580368600,5.67736865234375,-0.03680240362882614,-0.13835856318473816,-0.040269870311021805
1733860960590318600,5.687318603515625,-0.038974035531282425,-0.1391836404800415,-0.04360416904091835
1733860960600269800,5.697269775390625,-0.04003770276904106,-0.14611025154590607,-0.045979972928762436
1733860960610220500,5.707220458984375,-0.04035517945885658,-0.14965279400348663,-0.05002960190176964
1733860960620171800,5.717171875,-0.0417725145816803,-0.14446468651294708,-0.0543106310069561
1733860960630121700,5.727121826171875,-0.039229463785886765,-0.13191454112529755,-0.05833600088953972
1733860960640072700,5.73707275390625,-0.03675165772438049,-0.11232913285493851,-0.05926384776830673
1733860960650023700,5.747023681640625,-0.03152114897966385,-0.09078040719032288,-0.052172593772411346
1733860960659975000,5.756974853515625,-0.02508668601512909,-0.0645887479186058,-0.037911899387836456
1733860960669925600,5.766925537109375,-0.015048244968056679,-0.03190433233976364,-0.02833379991352558
1733860960679875600,5.77687548828125,-0.010478527285158634,-0.0038061202503740788,-0.021131547167897224
1733860960689826800,5.786826904296875,-0.009048032574355602,0.021668381989002228,-0.015015080571174622
1733860960699781600,5.79678173828125,-0.013493913225829601,0.043842390179634094,-0.011233391240239143
1733860960709732600,5.806732666015625,-0.019691921770572662,0.05806899070739746,-0.011122098192572594
1733860960719682800,5.816682861328125,-0.0209963358938694,0.06654743105173111,-0.010762304998934269
1733860960729633500,5.826633544921875,-0.017932863906025887,0.07144232839345932,-0.012263709679245949
1733860960739584800,5.836584716796875,-0.013596971519291401,0.06865186989307404,-0.011920161545276642
1733860960749535500,5.846535400390625,-0.013685140758752823,0.0670718178153038,-0.006917058024555445
1733860960759485400,5.8564853515625,-0.008929800242185593,0.06899888068437576,-0.003543365281075239
1733860960769436700,5.866436767578125,-0.010858239606022835,0.06816183030605316,0.0020523257553577423
1733860960779387600,5.8763876953125,-0.013427125290036201,0.06281953305006027,0.0033090715296566486
1733860960789338600,5.886338623046875,-0.009908060543239117,0.0582740344107151,0.0028328155167400837
1733860960799289600,5.89628955078125,-0.004964168183505535,0.05388781055808067,0.0013734030071645975
1733860960809239600,5.906239501953125,-0.0024998586159199476,0.04622139409184456,-0.0005656261928379536
1733860960819190500,5.9161904296875,-0.0022969257552176714,0.029426967725157738,-0.004908442962914705
1733860960829141500,5.9261416015625,-0.0009306180290877819,0.004926174879074097,-0.00952488835901022
1733860960839092500,5.936092529296875,-0.0042534442618489265,-0.024277251213788986,-0.012645847164094448
1733860960849042700,5.946042724609375,-0.0025886520743370056,-0.04761965200304985,-0.016639385372400284
1733860960858993400,5.955993408203125,-0.0019050188129767776,-0.062270231544971466,-0.014863589778542519
1733860960868944600,5.965944580078125,0.0016878815367817879,-0.07036995887756348,-0.009506617672741413
1733860960878895600,5.9758955078125,0.003992581274360418,-0.07394818216562271,-0.008210723288357258
1733860960888845600,5.985845458984375,0.00571884261444211,-0.06933744996786118,-0.009086903184652328
1733860960898796500,5.995796630859375,0.004502309951931238,-0.06185157224535942,-0.010365220718085766
1733860960908747800,6.005747802734375,0.0016080671921372414,-0.0528375469148159,-0.012516561895608902
1733860960918698500,6.015698486328125,0.0011372203007340431,-0.04354764148592949,-0.015174129977822304
1733860960928648700,6.025648681640625,0.0002277381718158722,-0.03591182827949524,-0.015302078798413277
1733860960938599700,6.035599609375,-0.00013019051402807236,-0.027339646592736244,-0.012948377057909966
1733860960948550700,6.045550537109375,0.0019260169938206673,-0.016750123351812363,-0.010755439288914204
1733860960958501600,6.055501708984375,0.0027281614020466805,-0.0052468664944171906,-0.004429899621754885
1733860960968452600,6.06545263671875,0.004275191575288773,0.009644199162721634,0.0024796719662845135
1733860960978402600,6.075402587890625,0.009412429295480251,0.020284859463572502,0.006121011916548014
1733860960988353500,6.085353515625,0.010716604068875313,0.027233052998781204,0.010304274037480354
1733860960998304500,6.095304443359375,0.010077446699142456,0.026158735156059265,0.012222548946738243
1733860961008255500,6.10525537109375,0.010773115791380405,0.017419584095478058,0.011644579470157623
1733860961018205700,6.115205810546875,0.008073202334344387,0.007299838121980429,0.010047215968370438
1733860961028156400,6.125156494140625,0.00537207443267107,-0.00473449844866991,0.003311477368697524
1733860961038107600,6.135107666015625,0.00119117833673954,-0.017795439809560776,0.0020147841423749924
1733860961048058600,6.14505859375,-0.0009765110444277525,-0.023227715864777565,-0.0010810382664203644
1733860961058008600,6.155008544921875,-0.00202180165797472,-0.028514890000224113,-0.003820632118731737
1733860961067959600,6.16495947265625,-0.0033685159869492054,-0.03448275849223137,-0.007847984321415424
1733860961077910800,6.174910888671875,-0.0015282717067748308,-0.03822210431098938,-0.011473345570266247
1733860961087861500,6.184861572265625,0.0017447201535105705,-0.041642140597105026,-0.013425471261143684
1733860961097812700,6.194812744140625,0.0028549921698868275,-0.04217104613780975,-0.011785496026277542
1733860961107762700,6.2047626953125,0.003970798570662737,-0.03785087913274765,-0.01155193243175745
1733860961117713700,6.214713623046875,0.004951640963554382,-0.03284334018826485,-0.009315409697592258
1733860961127664600,6.22466455078125,0.003799654543399811,-0.026409117504954338,-0.005772790405899286
1733860961137615600,6.23461572265625,0.00304331723600626,-0.02388923428952694,-0.0028361226432025433
1733860961147565600,6.244565673828125,0.009872421622276306,-0.021429015323519707,-0.002141391159966588
1733860961157516800,6.254516845703125,0.013742261566221714,-0.0206694807857275,-0.0014066251460462809
1733860961167467500,6.264467529296875,0.01771513745188713,-0.021251121535897255,-0.000016423757188022137
1733860961177418800,6.274418701171875,0.02059561386704445,-0.01846305839717388,0.0028025321662425995
1733860961187368700,6.28436865234375,0.022159859538078308,-0.013225981034338474,0.0030330850277096033
1733860961197319400,6.2943193359375,0.023516476154327393,-0.0028942471835762262,0.004949229769408703
1733860961207270700,6.304270751953125,0.022889673709869385,0.007953371852636337,0.008105269633233547
1733860961217221400,6.314221435546875,0.02087525650858879,0.01862838678061962,0.009180653840303421
1733860961227172600,6.324172607421875,0.018749210983514786,0.027458084747195244,0.009714207611978054
1733860961237122600,6.33412255859375,0.012171736918389797,0.0365770161151886,0.010525939054787159
1733860961247073500,6.344073486328125,0.0051605841144919395,0.044631704688072205,0.0066946763545274734
1733860961257024500,6.3540244140625,-0.0028826945926994085,0.04862537980079651,0.0040594786405563354
1733860961266975700,6.363975830078125,-0.009517338126897812,0.04751887172460556,0.0007806663634255528
1733860961276925400,6.373925537109375,-0.012186091393232346,0.04625812917947769,-0.0014915426727384329
1733860961286876700,6.383876708984375,-0.013998372480273247,0.04060716927051544,-0.0006372006610035896
1733860961296827600,6.39382763671875,-0.01419890858232975,0.034780971705913544,0.0017106422455981374
1733860961306778600,6.403778564453125,-0.011815138161182404,0.03071298636496067,0.004469710402190685
1733860961316728600,6.413728515625,-0.008226795122027397,0.026056181639432907,0.009748095646500587
1733860961326679800,6.4236796875,-0.006835801061242819,0.022226564586162567,0.011685778386890888
1733860961336630500,6.433630615234375,-0.004437890835106373,0.01886299066245556,0.013758516870439053
1733860961346581800,6.443581787109375,-0.002257491461932659,0.00953209400177002,0.011367907747626305
1733860961356532500,6.453532470703125,-0.0005418830551207066,-0.0013836708385497332,0.009556425735354424
1733860961366482400,6.463482421875,-0.0007640102412551641,-0.013774298131465912,0.007757817395031452
1733860961376433700,6.47343359375,0.0011862227693200111,-0.02556224912405014,0.005562840029597282
1733860961386384400,6.48338427734375,0.002068794332444668,-0.033830031752586365,0.0029633285012096167
1733860961396335600,6.493335693359375,0.0025697345845401287,-0.0400109626352787,0.0015356078511103988
1733860961406285600,6.50328564453125,0.0013755732215940952,-0.04554874077439308,0.00025995366740971804
1733860961416236500,6.513236572265625,0.0026174052618443966,-0.04897889122366905,-0.0029187952168285847
1733860961426187500,6.5231875,0.00036120787262916565,-0.05239572003483772,-0.007189412601292133
1733860961436138800,6.533138671875,-0.002918474841862917,-0.05424182116985321,-0.008965209126472473
1733860961446088400,6.54308837890625,-0.0032200459390878677,-0.05342878773808479,-0.012298558838665485
1733860961456039700,6.553039794921875,-0.005136456340551376,-0.04817090928554535,-0.01710662990808487
1733860961465990700,6.56299072265625,-0.004484653472900391,-0.040769681334495544,-0.01593846082687378
1733860961475941600,6.572941650390625,-0.00280979136005044,-0.023274047300219536,-0.011013742536306381
1733860961485892600,6.582892578125,-0.0040304637514054775,-0.008580362424254417,-0.008996679447591305
1733860961495842800,6.5928427734375,-0.005617175251245499,0.00846573244780302,-0.0057196603156626225
1733860961505793500,6.60279345703125,-0.0058466847985982895,0.018615590408444405,-0.0029619652777910233
1733860961515744800,6.612744873046875,-0.0029462361708283424,0.027108943089842796,0.0030053798109292984
1733860961525695500,6.622695556640625,-0.002570951823145151,0.027786197140812874,0.0012481037992984056
1733860961535645400,6.6326455078125,-0.0009655985049903393,0.0273454450070858,0.005506764631718397
1733860961545596700,6.6425966796875,0.003352073021233082,0.024397822096943855,0.007635976187884808
1733860961555547600,6.652547607421875,0.008167333900928497,0.020130639895796776,0.009891141206026077
1733860961565498600,6.66249853515625,0.015507210046052933,0.011981074698269367,0.00907637644559145
1733860961575448600,6.672448486328125,0.025193659588694572,0.0024685298558324575,0.009787706658244133
1733860961585399600,6.682399658203125,0.032832540571689606,-0.00391501747071743,0.010140580125153065
1733860961595350500,6.6923505859375,0.038362059742212296,-0.011030185036361217,0.01037893258035183
1733860961605301500,6.702301513671875,0.043133724480867386,-0.021181335672736168,0.010759137570858002
1733860961615251500,6.71225146484375,0.04478488489985466,-0.03468915820121765,0.009471499361097813
1733860961625202700,6.72220263671875,0.04515361413359642,-0.048208195716142654,0.005341687239706516
1733860961635153400,6.7321533203125,0.04129309579730034,-0.05809598043560982,0.005261260084807873
1733860961645104600,6.742104736328125,0.03952754661440849,-0.06155938655138016,0.003401414956897497
1733860961655055600,6.7520556640625,0.03498019650578499,-0.05880887061357498,-0.0014471360482275486
1733860961665005600,6.762005615234375,0.03266829252243042,-0.05447164922952652,-0.004585256800055504
1733860961674956500,6.77195654296875,0.03044455498456955,-0.042829908430576324,-0.008236982859671116
1733860961684907800,6.78190771484375,0.02654474414885044,-0.03189340978860855,-0.010854351334273815
1733860961694855700,6.791855712890625,0.024034447968006134,-0.02390179969370365,-0.00853367242962122
1733860961704805600,6.8018056640625,0.01834975741803646,-0.01388908363878727,-0.008172471076250076
1733860961714756600,6.811756591796875,0.015961701050400734,-0.005899599753320217,-0.004514886531978846
1733860961724707800,6.821707763671875,0.01273556612432003,0.00004085223190486431,-0.0022475612349808216
1733860961734658800,6.831658935546875,0.009251086041331291,0.005847342312335968,-0.0018619357142597437
1733860961744609800,6.84160986328125,0.009035840630531311,0.012202692218124866,0.000745246303267777
1733860961754559700,6.851559814453125,0.008892029523849487,0.01681794971227646,-0.0017197756096720695
1733860961764510700,6.8615107421875,0.0064054857939481735,0.02287985198199749,-0.0024791075848042965
1733860961774461700,6.871461669921875,0.005059790797531605,0.027909498661756516,-0.0005919914692640305
1733860961784412700,6.88141259765625,0.007216278463602066,0.033432845026254654,0.002126023406162858
1733860961794363000,6.89136279296875,0.007949446327984333,0.03986464440822601,0.006884027272462845
1733860961804313600,6.901313720703125,0.01019027829170227,0.0444524921476841,0.013714965432882309
1733860961814264800,6.911264892578125,0.011307740584015846,0.05127418041229248,0.018083615228533745
1733860961824215600,6.921215576171875,0.01503492146730423,0.05483192205429077,0.02207038551568985
1733860961834165800,6.931165771484375,0.018658950924873352,0.05585245043039322,0.022586772218346596
1733860961844116700,6.94111669921875,0.0214797705411911,0.05333442986011505,0.022713538259267807
1733860961854067700,6.951067626953125,0.023620419204235077,0.04678252339363098,0.021199798211455345
1733860961864018700,6.961018798828125,0.02364386059343815,0.03619352728128433,0.023100821301341057
1733860961873969000,6.970968994140625,0.02070293202996254,0.018335700035095215,0.01818196289241314
1733860961883919600,6.980919677734375,0.012128918431699276,-0.0050489758141338825,0.011072414927184582
1733860961893870800,6.990870849609375,-0.00009792111814022064,-0.03470167890191078,0.0009793008212000132
1733860961903821800,7.00082177734375,-0.00932423397898674,-0.07070816308259964,-0.009276261553168297
1733860961913772800,7.010772705078125,-0.020422957837581635,-0.10649625211954117,-0.020626388490200043
1733860961923722800,7.02072265625,-0.0326915942132473,-0.13274303078651428,-0.0342363566160202
1733860961933673700,7.030673828125,-0.04772220924496651,-0.15173935890197754,-0.045019496232271194
1733860961943624700,7.040624755859375,-0.06024438142776489,-0.16414889693260193,-0.0554824024438858
1733860961953575700,7.05057568359375,-0.07210636138916016,-0.16986031830310822,-0.06378001719713211
1733860961963526000,7.06052587890625,-0.0799027681350708,-0.17352056503295898,-0.06948263943195343
1733860961973476600,7.0704765625,-0.08417937159538269,-0.17190323770046234,-0.07455763965845108
1733860961983427800,7.080427734375,-0.0861884132027626,-0.1674344390630722,-0.0762091875076294
1733860961993378600,7.090378662109375,-0.08522408455610275,-0.15777675807476044,-0.07418252527713776
1733860962003328800,7.100328857421875,-0.08050447702407837,-0.1441352665424347,-0.06858082115650177
1733860962013279700,7.11027978515625,-0.07266679406166077,-0.12290854752063751,-0.06113116070628166
1733860962023230700,7.120230712890625,-0.06665224581956863,-0.10067298263311386,-0.05222032591700554
1733860962033181700,7.130181640625,-0.05724436044692993,-0.07291831821203232,-0.03427781164646149
1733860962043132700,7.140132568359375,-0.043433524668216705,-0.04429415240883827,-0.018989333882927895
1733860962053082600,7.15008251953125,-0.03203972056508064,-0.012617447413504124,0.001408614800311625
1733860962063033900,7.160033935546875,-0.022081049159169197,0.020832937210798264,0.016392823308706284
1733860962072984600,7.169984619140625,-0.010070724412798882,0.05215704068541527,0.03164341673254967
1733860962082935800,7.179935791015625,-0.0018420768901705742,0.08225608617067337,0.040272973477840424
1733860962092885800,7.1898857421875,0.007763412315398455,0.10119568556547165,0.04584510251879692
1733860962102836700,7.199836669921875,0.012678433209657669,0.10997209697961807,0.04751678928732872
1733860962112787700,7.20978759765625,0.01731979101896286,0.10890603810548782,0.04907553642988205
1733860962122739000,7.219739013671875,0.016222715377807617,0.09659189730882645,0.0458260178565979
1733860962132688600,7.229688720703125,0.018507707864046097,0.08108004927635193,0.045439060777425766
1733860962142639600,7.2396396484375,0.0162412878125906,0.06648989766836166,0.039789583534002304
1733860962152590800,7.2495908203125,0.016171779483556747,0.05257834494113922,0.03646143153309822
1733860962162541600,7.25954150390625,0.016706470400094986,0.03522782400250435,0.03164094686508179
1733860962172492800,7.269492919921875,0.01490058097988367,0.022549046203494072,0.025449363514780998
1733860962182442800,7.27944287109375,0.012739048339426517,0.014423791319131851,0.018829138949513435
1733860962192393700,7.289393798828125,0.010427690111100674,0.0026904360856860876,0.010282255709171295
1733860962202344700,7.2993447265625,0.005826119799166918,-0.011178558692336082,0.0064886631444096565
1733860962212295700,7.309295654296875,0.001586367841809988,-0.022128146141767502,0.002637732308357954
1733860962222245600,7.31924560546875,-0.001365377102047205,-0.029416117817163467,-0.0010731928050518036
1733860962232196900,7.32919677734375,-0.00019278726540505886,-0.03462552651762962,-0.005283118225634098
1733860962242147600,7.339147705078125,0.0031854771077632904,-0.03227047994732857,-0.013500690460205078
1733860962252098800,7.349098876953125,0.008069980889558792,-0.024778207764029503,-0.015165964141488075
1733860962262048800,7.359048828125,0.013371763750910759,-0.012746857479214668,-0.013947121798992157
1733860962271999700,7.368999755859375,0.024367956444621086,0.0024379552341997623,-0.009912965819239616
1733860962281950700,7.37895068359375,0.03516756370663643,0.013763301074504852,-0.00456894189119339
1733860962291902000,7.38890185546875,0.050541989505290985,0.02662397176027298,0.006619264371693134
1733860962301852700,7.398852783203125,0.06542853266000748,0.03500707447528839,0.011562948115170002
1733860962311802600,7.408802734375,0.07769159227609634,0.03860101103782654,0.013720907270908356
1733860962321753900,7.41875390625,0.08201472461223602,0.041419439017772675,0.01751268282532692
1733860962331704600,7.42870458984375,0.08771761506795883,0.0421784408390522,0.017670609056949615
1733860962341655800,7.43865576171875,0.09087692946195602,0.04529913514852524,0.02432105503976345
1733860962351605800,7.448605712890625,0.0900912955403328,0.044127609580755234,0.028807150200009346
1733860962361556700,7.458556640625,0.08824089914560318,0.03620415925979614,0.029595153406262398
1733860962371507700,7.4685078125,0.08217474818229675,0.029704982414841652,0.0320013202726841
1733860962381458700,7.478458740234375,0.07494508475065231,0.026729702949523926,0.03187040984630585
1733860962391408600,7.48840869140625,0.06511029601097107,0.026707066223025322,0.03080700896680355
1733860962401360000,7.49835986328125,0.05289648845791817,0.03178118169307709,0.029612937942147255
1733860962411310600,7.508310546875,0.040302664041519165,0.042655929923057556,0.027092788368463516
1733860962421261800,7.51826171875,0.026887845247983932,0.043487656861543655,0.021602142602205276
1733860962431212500,7.528212646484375,0.015759559348225594,0.03965563327074051,0.01651417277753353
1733860962441162800,7.538162841796875,0.004436357878148556,0.029642421752214432,0.010367566719651222
1733860962451113700,7.54811376953125,-0.0030489894561469555,0.008019150234758854,0.006052978802472353
1733860962461064700,7.558064697265625,-0.012149098329246044,-0.013387896120548248,-0.0003969501703977585
1733860962471015700,7.568015625,-0.019447224214673042,-0.03369743004441261,-0.008242090232670307
1733860962480965600,7.577965576171875,-0.023785946890711784,-0.047229718416929245,-0.019181154668331146
1733860962490916600,7.58791650390625,-0.025829123333096504,-0.04991711676120758,-0.029562154784798622
1733860962500867600,7.59786767578125,-0.02281266637146473,-0.04660923779010773,-0.03851296752691269
1733860962510818800,7.60781884765625,-0.022171378135681152,-0.03816062584519386,-0.04478071630001068
1733860962520768800,7.617768798828125,-0.017317719757556915,-0.028633149340748787,-0.04589398577809334
1733860962530719700,7.6277197265625,-0.016480155289173126,-0.018385572358965874,-0.045623939484357834
1733860962540670700,7.637670654296875,-0.01262553222477436,-0.01261850818991661,-0.04161969572305679
1733860962550621700,7.64762158203125,-0.010058511048555374,-0.009622184559702873,-0.03900473937392235
1733860962560572700,7.65757275390625,-0.009615844115614891,-0.010234963148832321,-0.033495258539915085
1733860962570523000,7.66752294921875,-0.008000370115041733,-0.01389547809958458,-0.02941982075572014
1733860962580473600,7.6774736328125,-0.006104267202317715,-0.017546160146594048,-0.024838492274284363
1733860962590424800,7.6874248046875,-0.0011217594146728516,-0.02170788124203682,-0.022315680980682373
1733860962600375600,7.69737548828125,0.0027034003287553787,-0.02431350015103817,-0.017492379993200302
1733860962610325800,7.70732568359375,0.007651819847524166,-0.02978682890534401,-0.018847130239009857
1733860962620276700,7.71727685546875,0.013104269281029701,-0.03259669616818428,-0.017363665625452995
1733860962630227700,7.727227783203125,0.019152574241161346,-0.03702313452959061,-0.016864588484168053
1733860962640178700,7.7371787109375,0.025368159636855125,-0.03923920914530754,-0.017634492367506027
1733860962650129000,7.74712890625,0.02954878844320774,-0.03826848790049553,-0.020390864461660385
1733860962660079600,7.75707958984375,0.03194195777177811,-0.032658789306879044,-0.023263417184352875
1733860962670030800,7.76703076171875,0.03243464231491089,-0.02300882525742054,-0.028409443795681
1733860962679981800,7.77698193359375,0.030767543241381645,-0.017603660002350807,-0.03272708132863045
1733860962689932800,7.786932861328125,0.0292439516633749,-0.01907132752239704,-0.03954983502626419
1733860962699881000,7.796880859375,0.0210392028093338,-0.026497310027480125,-0.04041345790028572
1733860962709832200,7.806832275390625,0.013828161172568798,-0.03933880850672722,-0.03910132125020027
1733860962719783200,7.816783203125,0.005260378122329712,-0.052389856427907944,-0.03704167529940605
1733860962729734100,7.826734130859375,-0.007531849201768637,-0.05855054780840874,-0.037778571248054504
1733860962739684000,7.83668408203125,-0.018444042652845383,-0.05995168164372444,-0.04271194338798523
1733860962749635300,7.84663525390625,-0.030790723860263824,-0.053891923278570175,-0.04546725004911423
1733860962759586000,7.8565859375,-0.037652745842933655,-0.04653117060661316,-0.046261124312877655
1733860962769537300,7.866537353515625,-0.04750324785709381,-0.0379246324300766,-0.04417214170098305
1733860962779487200,7.8764873046875,-0.05541582405567169,-0.030458474531769753,-0.040119070559740067
1733860962789438200,7.886438232421875,-0.06388973444700241,-0.027093838900327682,-0.031012391671538353
1733860962799389200,7.89638916015625,-0.06720249354839325,-0.025331906974315643,-0.023770982399582863
1733860962809340200,7.906340087890625,-0.06771035492420197,-0.02640516124665737,-0.015423037111759186
1733860962819291100,7.916291015625,-0.06557215750217438,-0.0263252854347229,-0.01139919925481081
1733860962829241300,7.926241455078125,-0.05529448762536049,-0.02457878366112709,-0.00953099224716425
1733860962839192000,7.936192138671875,-0.04463875666260719,-0.021360572427511215,-0.008909814991056919
1733860962849143300,7.946143310546875,-0.03493206948041916,-0.020027127116918564,-0.009114345535635948
1733860962859094000,7.956093994140625,-0.024445973336696625,-0.01983088068664074,-0.00949638057500124
1733860962869044000,7.9660439453125,-0.016024524345993996,-0.023755313828587532,-0.005441185086965561
1733860962878995200,7.9759951171875,-0.008927924558520317,-0.026746021583676338,-0.0036252732388675213
1733860962888946200,7.9859462890625,-0.0009288534056395292,-0.024675946682691574,-0.0007613098714500666
1733860962898897200,7.995897216796875,0.0008883769623935223,-0.020914534106850624,0.002231831895187497
1733860962908847000,8.00584716796875,0.006616570055484772,-0.018589327111840248,0.004469153471291065
1733860962918798300,8.01579833984375,0.011735504493117332,-0.017710726708173752,0.005035241134464741
1733860962928749000,8.0257490234375,0.01677979715168476,-0.019849510863423347,0.009883792139589787
1733860962938700300,8.0357001953125,0.01820862852036953,-0.021661778911948204,0.013141781091690063
1733860962948651000,8.045651123046875,0.021068863570690155,-0.02361920289695263,0.018248392269015312
1733860962958601200,8.055601318359376,0.02380283921957016,-0.024147048592567444,0.023139052093029022
1733860962968552200,8.06555224609375,0.024548789486289024,-0.02232304960489273,0.024284744635224342
1733860962978503200,8.075503173828125,0.022331878542900085,-0.017513412982225418,0.02622099593281746
1733860962988454100,8.0854541015625,0.019548075273633003,-0.012055530212819576,0.024221494793891907
1733860962998404400,8.095404296875,0.01463429443538189,-0.009376117028295994,0.026251530274748802
1733860963008355000,8.10535498046875,0.007846429944038391,-0.005808279849588871,0.02516123093664646
1733860963018306300,8.115306396484375,-0.00017498736269772053,-0.005191749893128872,0.026982534676790237
1733860963028257000,8.125257080078125,-0.010797804221510887,-0.0038846710231155157,0.029376981779932976
1733860963038207200,8.135207275390625,-0.018414407968521118,-0.001182882348075509,0.0270856823772192
1733860963048158200,8.145158203125,-0.024887753650546074,0.0007481756620109081,0.02118784561753273
1733860963058109200,8.155109130859374,-0.03202532231807709,0.008536048233509064,0.015558164566755295
1733860963068060200,8.16506005859375,-0.033691130578517914,0.01716788485646248,0.014243361540138721
1733860963078011400,8.175011474609375,-0.034612689167261124,0.02233632281422615,0.008282012306153774
1733860963087961000,8.184961181640626,-0.03561589866876602,0.02618645504117012,0.006251351907849312
1733860963097912000,8.194912109375,-0.03229076415300369,0.032307446002960205,0.002561042318120599
1733860963107863300,8.20486328125,-0.030738141387701035,0.038023922592401505,-0.0014478140510618687
1733860963117814000,8.21481396484375,-0.026674292981624603,0.04132486507296562,-0.006109895184636116
1733860963127764200,8.22476416015625,-0.01997298002243042,0.037775669246912,-0.012698022648692131
1733860963137715200,8.234715087890624,-0.013188015669584274,0.02894943207502365,-0.01619206741452217
1733860963147666200,8.244666259765625,-0.0069887093268334866,0.015424570068717003,-0.017659468576312065
1733860963157617200,8.2546171875,0.0009203404188156128,0.005775669123977423,-0.011017070151865482
1733860963167568100,8.264568115234376,0.004748367704451084,0.00030926475301384926,-0.004404175095260143
1733860963177518000,8.27451806640625,0.006317291408777237,0.0018168985843658447,0.001451841089874506
1733860963187469300,8.28446923828125,0.007447004318237305,0.0020565830636769533,0.004603692330420017
1733860963197420000,8.294419921875,0.005317439325153828,-0.001059086062014103,0.002119573997333646
1733860963207371300,8.304371337890625,0.005320101976394653,-0.011471513658761978,-0.004890930838882923
1733860963217321200,8.3143212890625,0.0020217220298945904,-0.02184375375509262,-0.01078508235514164
1733860963227272200,8.324272216796874,-0.0004542190581560135,-0.0340610034763813,-0.010283875279128551
1733860963237223200,8.33422314453125,-0.0020145915914326906,-0.03566227853298187,-0.00880109891295433
1733860963247174100,8.344174072265625,-0.0061797755770385265,-0.028097834438085556,-0.008877531625330448
1733860963257124000,8.3541240234375,-0.008109578862786293,-0.014004141092300415,-0.008461983874440193
1733860963267075300,8.364075439453124,-0.008435282856225967,0.0018352762563154101,-0.010001557879149914
1733860963277026300,8.3740263671875,-0.008318865671753883,0.014437365345656872,-0.007139905821532011
1733860963286977300,8.383977294921875,-0.009224873036146164,0.02336534671485424,-0.004453042522072792
1733860963296928300,8.39392822265625,-0.00806504674255848,0.029261590912938118,0.003433552570641041
1733860963306878200,8.403878173828126,-0.005185104440897703,0.03205284848809242,0.011258453130722046
1733860963316829200,8.4138291015625,-0.0029461453668773174,0.03963194787502289,0.015175782144069672
1733860963326780200,8.4237802734375,-0.002438812982290983,0.04211561381816864,0.015389101579785347
1733860963336731100,8.433731201171875,0.00013237260282039642,0.04067561775445938,0.01261666975915432
1733860963346681000,8.44368115234375,0.0036003408022224903,0.033832624554634094,0.005328929517418146
1733860963356632300,8.45363232421875,0.005420629400759935,0.021425761282444,-0.00017005647532641888
1733860963366583000,8.4635830078125,0.005302917677909136,0.007419930770993233,-0.0008723321370780468
1733860963376534300,8.4735341796875,0.005245920270681381,0.00006587570533156395,-0.00037011830136179924
1733860963386484200,8.483484130859376,0.008271005004644394,-0.0011711625847965479,0.004103459417819977
1733860963396435200,8.493435302734374,0.007837152108550072,0.0050065647810697556,0.007684378884732723
1733860963406386200,8.50338623046875,0.007760186213999987,0.007862539030611515,0.010336088016629219
1733860963416337200,8.513337158203125,0.008325030095875263,0.01092197373509407,0.012180743739008904
1733860963426287000,8.523287109375,0.007801186293363571,0.00996030680835247,0.01360473595559597
1733860963436238300,8.53323828125,0.005631824489682913,0.009931026957929134,0.019002364948391914
1733860963446189000,8.54318896484375,0.0018277657218277454,0.007398893125355244,0.021636497229337692
1733860963456140300,8.553140380859375,-0.0009960702154785395,0.0026685590855777264,0.019628724083304405
1733860963466091300,8.56309130859375,-0.0021651978604495525,-0.006389384623616934,0.013023550622165203
1733860963476041000,8.573041015625,-0.001958252163603902,-0.009862406179308891,0.008519520983099937
1733860963485992200,8.5829921875,-0.003544164588674903,-0.012496539391577244,0.003282947465777397
1733860963495943200,8.592943115234375,-0.005663947202265263,-0.009367830120027065,0.001382859773002565
1733860963505894100,8.60289404296875,-0.006595521233975887,-0.002782098250463605,0.0028902089688926935
1733860963515844000,8.612843994140626,-0.009088351391255856,0.005779930390417576,0.001304577337577939
1733860963525795300,8.62279541015625,-0.011136854998767376,0.013025326654314995,0.003038295079022646
1733860963535746000,8.63274609375,-0.01340397447347641,0.02072134055197239,0.004520901478827
1733860963545697300,8.642697265625,-0.01322128064930439,0.02392219379544258,0.004586681257933378
1733860963555648000,8.65264794921875,-0.012965877540409565,0.02228728123009205,0.0024887011386454105
1733860963565598200,8.66259814453125,-0.008548758924007416,0.017940735444426537,0.002345423214137554
1733860963575549200,8.672549072265625,-0.006685914006084204,0.015668513253331184,0.0034196600317955017
1733860963585500200,8.682500244140625,-0.007063283585011959,0.014706846326589584,0.003789306618273258
1733860963595451100,8.692451171875,-0.007177193649113178,0.014961734414100647,0.00347708398476243
1733860963605401300,8.7024013671875,-0.0078467121347785,0.015173988416790962,0.0036861421540379524
1733860963615352000,8.71235205078125,-0.008908197283744812,0.015877608209848404,0.002188050886616111
1733860963625303300,8.72230322265625,-0.011403579264879227,0.017978576943278313,0.0018506284104660153
1733860963635254300,8.732254150390625,-0.014928912743926048,0.01848694309592247,0.001952698570676148
1733860963645204000,8.742203857421876,-0.019351890310645103,0.01835937798023224,0.001221394632011652
1733860963655155200,8.7521552734375,-0.02164006605744362,0.01951785758137703,0.0011354908347129822
1733860963665106200,8.762106201171875,-0.02525903657078743,0.014886620454490185,0.0026015611365437508
1733860963675057200,8.77205712890625,-0.02676532045006752,0.007859869860112667,0.0009621190838515759
1733860963685008400,8.78200830078125,-0.027218855917453766,-0.0018753160256892443,0.00019646028522402048
1733860963694958300,8.791958251953124,-0.02820315957069397,-0.009298077784478664,-0.0020517802331596613
1733860963704909600,8.80190966796875,-0.0271149929612875,-0.013562597334384918,-0.004289368167519569
1733860963714860500,8.811860595703125,-0.023803072050213814,-0.015411093831062317,-0.008143644779920578
1733860963724811500,8.8218115234375,-0.02438843622803688,-0.01699833758175373,-0.011705356650054455
1733860963734761500,8.831761474609374,-0.020710527896881104,-0.019785847514867783,-0.012740830890834332
1733860963744712700,8.841712646484375,-0.018684927374124527,-0.02115178108215332,-0.014881213195621967
1733860963754663400,8.851663330078125,-0.017812855541706085,-0.022703638300299644,-0.015768565237522125
1733860963764614700,8.86161474609375,-0.01760859042406082,-0.0213017500936985,-0.01941176876425743
1733860963774564600,8.871564697265624,-0.019918598234653473,-0.02320510521531105,-0.021344784647226334
1733860963784515300,8.881515380859375,-0.02050183154642582,-0.022684723138809204,-0.02313815802335739
1733860963794466600,8.891466552734375,-0.021394122391939163,-0.02160957083106041,-0.025228040292859077
1733860963804417300,8.901417236328125,-0.02426261268556118,-0.015819059684872627,-0.025803282856941223
1733860963814368500,8.911368408203124,-0.027980227023363113,-0.006026376970112324,-0.028884492814540863
1733860963824318500,8.921318359375,-0.03037840500473976,0.007907015271484852,-0.028232285752892494
1733860963834269400,8.93126953125,-0.0312519408762455,0.019657408818602562,-0.02520178258419037
1733860963844220400,8.941220458984375,-0.0265171080827713,0.02620585635304451,-0.018087681382894516
1733860963854171400,8.95117138671875,-0.01985788904130459,0.03134867921471596,-0.01394157949835062
1733860963864121300,8.961121337890624,-0.014602674171328545,0.032477062195539474,-0.006875148043036461
1733860963874072600,8.971072509765625,-0.008224367164075375,0.029316965490579605,-0.0005218274891376495
1733860963884023600,8.9810234375,-0.0009075982961803675,0.02285187691450119,0.002432949608191848
1733860963893974500,8.990974609375,0.0069404104724526405,0.017056550830602646,0.0052356114611029625
1733860963903924500,9.000924560546874,0.011700544506311417,0.006313625257462263,0.0040726084262132645
1733860963913875500,9.01087548828125,0.013928061351180077,-0.0028596159536391497,0.004301573149859905
1733860963923826400,9.020826416015625,0.01732625439763069,-0.01205844059586525,0.0023388233967125416
1733860963933777700,9.030777587890626,0.022311221808195114,-0.019152816385030746,0.0017742858035489917
1733860963943728400,9.040728271484374,0.023702457547187805,-0.022459130734205246,0.0023125107400119305
1733860963953678300,9.05067822265625,0.026150111109018326,-0.01982954330742359,0.0019047866808250546
1733860963963629600,9.060629638671875,0.025671541690826416,-0.018240967765450478,0.0038827164098620415
1733860963973580300,9.070580322265625,0.02622874453663826,-0.012787326239049435,0.0030990594532340765
1733860963983531500,9.080531494140626,0.02574431523680687,-0.008152893744409084,0.006538265850394964
1733860963993481500,9.0904814453125,0.027457203716039658,-0.0038540347013622522,0.004347021691501141
1733860964003432400,9.100432373046875,0.02447126805782318,0.0016547138802707195,0.003602934768423438
1733860964013383400,9.110383544921875,0.027218837291002274,0.006445470731705427,0.005087263882160187
1733860964023334400,9.12033447265625,0.026500849053263664,0.00894724391400814,0.0026568633038550615
1733860964033284400,9.130284423828124,0.024828696623444557,0.00952063500881195,0.0027928275521844625
1733860964043235600,9.140235595703125,0.023470750078558922,0.007336311042308807,0.0015933398390188813
1733860964053186300,9.150186279296875,0.023751959204673767,0.001875227433629334,0.0014743870124220848
1733860964063137500,9.160137451171876,0.01962326094508171,-0.004931545816361904,0.0015209923731163144
1733860964073088500,9.170088623046874,0.014811147004365921,-0.008716711774468422,-0.00021612155251204967
1733860964083038500,9.18003857421875,0.010704285465180874,-0.0056905620731413364,-0.001219334313645959
1733860964092989400,9.189989501953125,0.007443529088050127,-0.0037573676090687513,-0.002170973690226674
1733860964102940700,9.199940673828126,0.0044080582447350025,0.0002975615207105875,-0.004503103904426098
1733860964112891400,9.209891357421874,0.0015801172703504562,-0.00032932707108557224,-0.00599729223176837
1733860964122841300,9.21984130859375,-0.0014657401479780674,-0.007759813219308853,-0.005940034054219723
1733860964132792600,9.22979248046875,-0.005793623626232147,-0.014123165979981422,-0.006197651848196983
1733860964142743600,9.23974365234375,-0.00810018740594387,-0.018095003440976143,-0.0066980598494410515
1733860964152694500,9.249694580078126,-0.011050265282392502,-0.022250093519687653,-0.007427312433719635
1733860964162644500,9.25964453125,-0.009301634505391121,-0.023123610764741898,-0.009155170992016792
1733860964172595500,9.269595458984375,-0.007421479094773531,-0.021332114934921265,-0.011230655945837498
1733860964182546400,9.27954638671875,-0.008971705101430416,-0.01944100484251976,-0.00889772642403841
1733860964192497400,9.289497314453126,-0.005994024686515331,-0.023370765149593353,-0.009820777922868729
1733860964202448400,9.299448486328124,-0.002124984283000231,-0.022789396345615387,-0.008570956997573376
1733860964212398600,9.309398681640625,-0.00042852037586271763,-0.02134275622665882,-0.010901465080678463
1733860964222349300,9.319349365234375,0.0020218542777001858,-0.01579752191901207,-0.006002313457429409
1733860964232300500,9.329300537109376,0.006074410863220692,-0.012565236538648605,-0.003944522235542536
1733860964242251500,9.33925146484375,0.010958381928503513,-0.004236998967826366,-0.0007548541761934757
1733860964252201500,9.349201416015624,0.013172242790460587,0.0015993104316294193,0.002411145018413663
1733860964262152400,9.35915234375,0.01583060994744301,0.007538425736129284,0.002593305194750428
1733860964272103400,9.369103515625,0.015542403794825077,0.009428718127310276,0.004419711418449879
1733860964282054400,9.379054443359376,0.016048137098550797,0.00887877494096756,0.0036306167021393776
1733860964292004600,9.389004638671874,0.016796551644802094,0.004581255838274956,0.003571867011487484
1733860964301955600,9.39895556640625,0.01406814344227314,0.0023588482290506363,0.0029787810053676367
1733860964311906600,9.408906494140625,0.013133924454450607,0.0018989257514476776,0.0038958825170993805
1733860964321857500,9.418857421875,0.01047023106366396,-0.0010409376118332148,0.003906268626451492
1733860964331808500,9.42880859375,0.009290692396461964,0.00284141069278121,0.001675105537287891
1733860964341758500,9.438758544921875,0.0055273789912462234,0.0030587248038500547,0.0003421934088692069
1733860964351709400,9.44870947265625,0.004328305833041668,0.0014510120963677764,-0.0035497320350259542
1733860964361660400,9.458660400390626,0.0030233566649258137,0.0001449978444725275,-0.002045844681560993
1733860964371611400,9.468611328125,0.0025093331933021545,0.002134905196726322,-0.004419282544404268
1733860964381561600,9.4785615234375,0.0028201239183545113,0.00022062496282160282,-0.0030877022072672844
1733860964391512300,9.48851220703125,0.0029433444142341614,0.0023833566810935736,-0.0012522158212959766
1733860964401463600,9.498463623046876,0.0025848830118775368,0.0020230310037732124,0.0005060032708570361
1733860964411414300,9.508414306640624,0.0014932476915419102,0.0011034396011382341,0.0003922277828678489
1733860964421364500,9.518364501953124,0.002882885280996561,0.0025537970941513777,0.00010487274266779423
1733860964431315500,9.5283154296875,0.002242122311145067,0.004231320694088936,0.0013439831091091037
1733860964441266400,9.538266357421875,0.0032237633131444454,0.0036515502724796534,-0.003528003580868244
1733860964451217400,9.548217529296876,0.0032484466210007668,-0.000050007132813334465,-0.0041591874323785305
1733860964461168600,9.558168701171875,0.002972010523080826,-0.0049377065151929855,-0.005791705101728439
1733860964471118300,9.568118408203125,-0.00019485363736748695,-0.004971210844814777,-0.00573287159204483
1733860964481069600,9.578069580078125,-0.00409718370065093,-0.002876634243875742,-0.006791478022933006
1733860964491020500,9.5880205078125,-0.006054633297026157,-0.0015277497004717588,-0.007095046807080507
1733860964500971500,9.597971435546874,-0.007718043401837349,0.0008187615312635899,-0.007040985394269228
1733860964510921500,9.60792138671875,-0.005472465883940458,0.00321214459836483,-0.006629792507737875
1733860964520872700,9.617872802734375,-0.006664045620709658,0.004860617220401764,-0.004816141910851002
1733860964530823400,9.627823486328126,-0.0034353144001215696,0.004532560706138611,-0.002582234563305974
1733860964540774700,9.637774658203124,-0.00018599163740873337,0.0026433144230395555,0.0011752191931009293
1733860964550724600,9.647724609375,0.000611692201346159,0.001797976205125451,0.0019537059124559164
1733860964560675300,9.65767529296875,0.0038495631888508797,-0.005444223992526531,0.0010056204628199339
1733860964570626600,9.66762646484375,0.004692066926509142,-0.012541507370769978,-0.0010340798180550337
1733860964580577300,9.677577392578126,0.005091274622827768,-0.016953034326434135,-0.0033528944477438927
1733860964590528500,9.687528564453125,0.006559708621352911,-0.018310988321900368,-0.00725551787763834
1733860964600478500,9.697478515625,0.006934415083378553,-0.01880074292421341,-0.0066882651299238205
1733860964610429400,9.707429443359375,0.007187182549387217,-0.01716635376214981,-0.0049036527052521706
1733860964620380400,9.71738037109375,0.0060968841426074505,-0.013223809190094471,-0.005089541431516409
1733860964630331400,9.727331298828124,0.005334927700459957,-0.01043335534632206,-0.00443517230451107
1733860964640281300,9.73728125,0.005975950509309769,-0.008121730759739876,-0.004225847311317921
1733860964650232600,9.747232666015625,0.0058125383220613,-0.004775520414113998,-0.0025104242376983166
1733860964660183600,9.75718359375,0.008064240217208862,-0.0017637514974921942,-0.002925344742834568
1733860964670134500,9.767134521484374,0.006473327521234751,0.001119142398238182,-0.0028794908430427313
1733860964680085500,9.77708544921875,0.009664326906204224,0.002696532756090164,-0.002132740570232272
1733860964690035500,9.787035400390625,0.009877195581793785,0.0020033358596265316,-0.003243850078433752
1733860964699986400,9.796986328125,0.011017827317118645,0.004723488353192806,-0.001987636787816882
1733860964709937700,9.806937744140624,0.009175432845950127,0.0027032094076275826,0.0018921464215964079
1733860964719888400,9.816888427734375,0.008724827319383621,0.0013226268347352743,0.0014157069381326437
1733860964729838300,9.82683837890625,0.007060022559016943,0.0009391128551214933,-0.0007236618548631668
1733860964739789600,9.83678955078125,0.006396095734089613,0.0021500522270798683,0.00043108477257192135
1733860964749740300,9.846740234375,0.004322336055338383,0.004052095115184784,0.00024160975590348244
1733860964759691500,9.85669140625,0.004722076468169689,0.007047885097563267,-0.0011501582339406013
1733860964769641500,9.866641357421875,0.0034999269992113113,0.004831594880670309,-0.0027184607461094856
1733860964779592400,9.876592529296875,0.002535063773393631,0.000001419801265001297,-0.001985825365409255
1733860964789543400,9.88654345703125,0.0015127011574804783,-0.004509435035288334,-0.004463130608201027
1733860964799494400,9.896494384765624,0.0006889854557812214,-0.005263376049697399,-0.003779497230425477
1733860964809445400,9.9064453125,-0.0008889930322766304,-0.00543463509529829,-0.004189616069197655
1733860964819395600,9.9163955078125,-0.0034749223850667477,-0.006156351417303085,-0.003945404663681984
1733860964829346300,9.92634619140625,-0.005960630252957344,-0.009165963158011436,-0.004703321028500795
1733860964839297500,9.936297607421874,-0.0028841462917625904,-0.011310074478387833,-0.005451935343444347
1733860964849248500,9.94624853515625,-0.0031321917194873095,-0.01149572990834713,-0.005068100988864899
1733860964859198500,9.956198486328125,-0.0012237706687301397,-0.009468797594308853,-0.004600715823471546
1733860964869149400,9.9661494140625,0.003055451437830925,-0.006144887767732143,-0.002573526930063963
1733860964879100700,9.9761005859375,0.003861058037728071,-0.0033357853535562754,0.0003301177639514208
1733860964889051400,9.986051513671875,0.006301489192992449,-0.0023144951555877924,0.0007409711834043264
1733860964899001300,9.99600146484375,0.008572898805141449,-0.005390179343521595,0.0018752114847302437
1733860964908952600,10.00595263671875,0.007475290447473526,-0.0017919351812452078,0.0033482727594673634
1733860964918903600,10.015903564453126,0.011036469601094723,0.0020073303021490574,0.004513139370828867
1733860964928854500,10.0258544921875,0.011861393228173256,0.002919158199802041,0.003065875731408596
1733860964938805500,10.035805419921875,0.014257173985242844,0.0032387373503297567,0.004018754698336124
1733860964948755500,10.04575537109375,0.012929451651871204,0.0041338661685585976,0.0029632383957505226
1733860964958706400,10.05570654296875,0.013288178481161594,0.0019918859470635653,-0.00016704131849110126
1733860964968657400,10.065657470703124,0.007882134057581425,-0.001593555323779583,-0.0006203893572092056
1733860964978608400,10.0756083984375,0.005939091555774212,-0.007571286987513304,-0.0012872449588030577
1733860964988558600,10.08555859375,0.003928144928067923,-0.014067266136407852,-0.0008797231130301952
1733860964998509300,10.09550927734375,0.003251435700803995,-0.016490744426846504,-0.0023330103140324354
1733860965008460500,10.10546044921875,0.0023388387635350227,-0.015462743118405342,-0.00028333114460110664
1733860965018411500,10.11541162109375,0.0006141755729913712,-0.011992378160357475,-0.0018218392506241798
1733860965028361500,10.125361572265625,0.0022221864201128483,-0.008841860108077526,0.0013877437449991703
1733860965038312400,10.1353125,0.0021058060228824615,-0.0047589680179953575,0.0004873289726674557
1733860965048263400,10.145263427734376,0.0015795030631124973,-0.003837266704067588,0.002402622951194644
1733860965058214400,10.15521435546875,0.004318031948059797,-0.004845006391406059,0.003559766337275505
1733860965068165600,10.16516552734375,0.005646465811878443,-0.004993862472474575,0.0030382536351680756
1733860965078115600,10.175115478515625,0.004655503202229738,-0.004986671730875969,0.0021663347724825144
1733860965088066600,10.185066650390626,0.004441045690327883,-0.006598173640668392,0.001388258533552289
1733860965098017500,10.195017578125,0.0036767181009054184,-0.009285037405788898,-0.0013265677262097597
1733860965107968500,10.204968505859375,0.005298074800521135,-0.00996493361890316,-0.0033460764680057764
1733860965117918500,10.21491845703125,0.003005625680088997,-0.0063326479867100716,-0.001360423630103469
1733860965127869400,10.224869384765626,0.004054434597492218,-0.004140583798289299,-0.003007063176482916
1733860965137820400,10.2348203125,0.006374846678227186,-0.006795489229261875,-0.003990835044533014
1733860965147771400,10.244771484375,0.005535932257771492,-0.006383237428963184,-0.003463171888142824
1733860965157721600,10.2547216796875,0.004284778609871864,-0.006406140513718128,-0.001940642949193716
1733860965167672300,10.26467236328125,0.0020269202068448067,-0.0031152814626693726,-0.0022149740252643824
1733860965177623600,10.27462353515625,0.0010263705626130104,-0.00023294240236282349,-0.0008674142882227898
1733860965187574300,10.28457421875,0.0012210295535624027,0.0023013155441731215,-0.0010199218522757292
1733860965197525500,10.294525390625,0.002682039514183998,0.002752454951405525,-0.001159205101430416
1733860965207475500,10.304475341796875,0.002802820410579443,0.008186940103769302,0.0015108368825167418
1733860965217426400,10.314426513671876,0.002749557141214609,0.010239970870316029,0.00286159198731184
1733860965227377400,10.32437744140625,0.004993694368749857,0.010041536763310432,0.0018616433953866363
1733860965237328600,10.33432861328125,0.0037390789948403835,0.004216670989990234,0.005421757232397795
1733860965247278300,10.3442783203125,0.003999765496701002,-0.0028545663226395845,0.0061055738478899
1733860965257229600,10.3542294921875,0.0024253050796687603,-0.010604364797472954,0.0024708916898816824
1733860965267180500,10.3641806640625,0.0021577244624495506,-0.014845693483948708,-0.0003743208944797516
1733860965277131500,10.374131591796875,0.00401927437633276,-0.01600070670247078,-0.002110435627400875
1733860965287081500,10.38408154296875,0.0048925313167274,-0.016805512830615044,-0.0034001460298895836
1733860965297032400,10.394032470703126,0.005725301336497068,-0.018026838079094887,-0.0031372918747365475
1733860965306983400,10.4039833984375,0.0070577263832092285,-0.018778903409838676,-0.002432208741083741
1733860965316934700,10.4139345703125,0.008001284673810005,-0.016604965552687645,-0.0017456456553190947
1733860965326885400,10.423885498046875,0.006064373999834061,-0.009973692707717419,-0.003061986993998289
1733860965336835300,10.43383544921875,0.0048305317759513855,-0.0030350922606885433,-0.001414289465174079
1733860965346786600,10.44378662109375,0.003735804930329323,0.00355697819031775,-0.00045979046262800694
1733860965356737300,10.4537373046875,0.004710788372904062,0.0051293084397912025,0.002157830633223057
1733860965366688500,10.4636884765625,0.005011525005102158,0.008840713649988174,0.001964058494195342
1733860965376638500,10.473638427734375,0.0034620976075530052,0.010517972521483898,0.0031350504141300917
1733860965386589400,10.48358935546875,0.005088503006845713,0.010043667629361153,0.0025708433240652084
1733860965396540400,10.49354052734375,0.007005446124821901,0.008734190836548805,0.00534612312912941
1733860965406491400,10.503491455078125,0.0031343381851911545,0.00628223642706871,0.003542949678376317
1733860965416442400,10.5134423828125,0.002164148259907961,0.004062491934746504,0.0017554359510540962
1733860965426392600,10.523392578125,0.001357178669422865,0.0024406183511018753,-0.0015644875820726156
1733860965436343600,10.533343505859374,0.0009379968978464603,0.0013620380777865648,-0.002128012478351593
1733860965446294500,10.54329443359375,-0.0002710907720029354,0.0014105038717389107,-0.0018913743551820517
1733860965456245500,10.55324560546875,-0.0006769564934074879,0.0005838586948812008,-0.0004024009685963392
1733860965466195500,10.563195556640625,-0.0006426507607102394,0.00007784226909279823,-0.0013786496128886938
1733860965476146400,10.573146484375,-0.0004080261569470167,-0.0005139121785759926,0.00011911219917237759
1733860965486097700,10.58309765625,0.000475139357149601,-0.0031269860919564962,0.0008310257690027356
1733860965496048400,10.59304833984375,-0.003082311013713479,-0.0033906393218785524,-0.0018678216729313135
1733860965505998300,10.602998291015625,-0.005865041632205248,-0.005489208735525608,-0.0002443001139909029
1733860965515949600,10.612949462890626,-0.00565039087086916,-0.009088204242289066,-0.0016525795217603445
1733860965525900300,10.622900390625,-0.005120471585541964,-0.008935620076954365,-0.0010897882748395205
1733860965535851500,10.6328515625,-0.004844567738473415,-0.008920174092054367,-0.0019531850703060627
1733860965545802500,10.642802490234375,-0.004844549112021923,-0.007415748201310635,-0.0015961467288434505
1733860965555752400,10.65275244140625,-0.0011816376354545355,-0.006334771402180195,-0.0015463456511497498
1733860965565703400,10.662703369140624,-0.0025219819508492947,-0.004399711266160011,0.00046537374146282673
1733860965575654400,10.672654296875,-0.0022484753280878067,-0.0020633197855204344,0.0022877748124301434
1733860965585605400,10.68260546875,-0.0014499749522656202,0.00033541000448167324,0.0041000209748744965
1733860965595555600,10.6925556640625,0.00046776747331023216,0.005794091150164604,0.004263272974640131
1733860965605506300,10.70250634765625,0.0026775063015520573,0.010943537577986717,0.0063122352585196495
1733860965615457500,10.71245751953125,0.0027076001279056072,0.017360690981149673,0.005525271408259869
1733860965625408500,10.722408447265625,0.003252470400184393,0.019156455993652344,0.0038079486694186926
1733860965635358500,10.7323583984375,0.002458582166582346,0.01781422272324562,0.002711259061470628
1733860965645309400,10.742309326171876,0.0011446969583630562,0.012269556522369385,0.003874305635690689
1733860965655260700,10.7522607421875,0.0013345801271498203,0.0072034262120723724,0.00338241970166564
1733860965665211400,10.76221142578125,-0.0005158660933375359,0.0021457932889461517,0.0025819118600338697
1733860965675162600,10.77216259765625,-0.005484525579959154,0.0026645769830793142,0.00423120753839612
1733860965685112600,10.782112548828126,-0.004423866048455238,0.0014560794224962592,0.002612912096083164
1733860965695063800,10.792063720703124,-0.005288860760629177,0.00020306208170950413,0.0015487129567191005
1733860965705014800,10.802014892578125,-0.004173432942479849,0.0011178187560290098,-0.0005207622889429331
1733860965714965800,10.8119658203125,-0.004266643431037664,0.0044989679008722305,0.0004875105805695057
1733860965724915700,10.821915771484376,-0.005729051772505045,0.005668605677783489,-0.000102220568805933
1733860965734866700,10.83186669921875,-0.004989758133888245,0.005512011703103781,0.0017281700856983662
1733860965744817700,10.841817626953125,-0.005569764878600836,0.005887261591851711,0.004182296805083752
1733860965754768600,10.8517685546875,-0.004233124200254679,0.004613205790519714,0.004127169493585825
1733860965764718800,10.86171875,-0.006394166499376297,0.005487554240971804,0.0030243422370404005
1733860965774669600,10.871669677734374,-0.002375722862780094,0.006557346321642399,0.0028869230300188065
1733860965784620800,10.881620849609375,-0.002526612253859639,0.007841740734875202,0.0024103561881929636
1733860965794571500,10.891571533203125,-0.0022352624218910933,0.009593567810952663,0.0034753545187413692
1733860965804522800,10.901522705078126,-0.0029366170056164265,0.0075080860406160355,0.0029390938580036163
1733860965814472700,10.91147265625,-0.0011941108386963606,0.009341939352452755,0.0019361473387107253
1733860965824423700,10.921423583984375,-0.0031001975294202566,0.0062300171703100204,0.002838640473783016
1733860965834374700,10.931374755859375,-0.0018173528369516134,0.003916262648999691,0.00389165454544127
1733860965844326000,10.941325927734376,-0.0011261871550232172,0.0018246375257149339,0.0034787675831466913
1733860965854275600,10.951275634765626,-0.001574130728840828,-0.0018417362589389086,0.0010824552737176418
1733860965864226800,10.961226806640624,-0.0011705246288329363,-0.0025073012802749872,-0.0007654055953025818
1733860965874177800,10.971177734375,0.00015626242384314537,-0.003289205254986882,0.0013547369744628668
1733860965884128800,10.981128662109375,-0.0007822357583791018,-0.002586397109553218,0.00045911583583801985
1733860965894078700,10.99107861328125,-0.0022717416286468506,-0.000001000240445137024,-0.0021100356243550777
1733860965904029700,11.00102978515625,-0.0008029488380998373,-0.00030591082759201527,-0.001390667399391532
1733860965913980700,11.010980712890625,-0.0025648961309343576,0.002390806097537279,-0.0011381995864212513
1733860965923932000,11.020931884765625,-0.003434448502957821,0.0039956169202923775,0.0010817869333550334
1733860965933882600,11.030882568359376,-0.002353471238166094,0.002207303885370493,-0.00009479757864028215
1733860965943832600,11.04083251953125,-0.004357729572802782,-0.0007692989893257618,0.0015319441445171833
1733860965953783800,11.05078369140625,-0.0029606353491544724,-0.004189330153167248,-0.0006699573714286089
1733860965963734500,11.060734619140625,-0.0024314592592418194,-0.0066940318793058395,-0.0012659146450459957
1733860965973685800,11.070685791015626,-0.0007440804038196802,-0.006853555329144001,0.00014316383749246597
1733860965983635700,11.0806357421875,-0.0018069539219141006,-0.0038729470688849688,-0.0008558460976928473
1733860965993586700,11.090586669921874,-0.00252574123442173,0.001413694117218256,0.0009830666240304708
1733860966003537700,11.10053759765625,-0.0032506228890269995,0.006700877100229263,0.001691759447567165
1733860966013489000,11.110489013671875,-0.003959023859351873,0.007892641238868237,0.002778062829747796
1733860966023438600,11.1204384765625,-0.001501997234299779,0.006372507661581039,0.0038749603554606438
1733860966033389800,11.130389892578124,-0.0035526312422007322,0.0044584935531020164,0.0036464612931013107
1733860966043340800,11.1403408203125,-0.0019869208335876465,0.001768977497704327,0.0022150976583361626
1733860966053291800,11.150291748046875,0.0007097963243722916,0.0023322361521422863,0.004547760356217623
1733860966063242800,11.16024267578125,0.002953694202005863,0.0028432728722691536,0.004424228332936764
1733860966073193000,11.17019287109375,0.006834452506154776,0.004002546891570091,0.005431702360510826
1733860966083143700,11.180143798828125,0.008306430652737617,0.003296291921287775,0.0049757035449147224
1733860966093095000,11.190094970703125,0.009904593229293823,-0.0005860642995685339,0.005972258280962706
1733860966103045600,11.200045654296876,0.0085808876901865,0.0008237736765295267,0.005458494648337364
1733860966112995600,11.20999560546875,0.007754243444651365,0.005110664293169975,0.006884883623570204
1733860966122946800,11.21994677734375,0.004787076730281115,0.010311860591173172,0.005024822894483805
1733860966132897500,11.2298974609375,0.0007204296998679638,0.010735303163528442,0.0014053205959498882
1733860966142848800,11.239848876953126,-0.005647310521453619,0.011941674165427685,0.0010552818421274424
1733860966152799500,11.249799560546874,-0.009875611402094364,0.014612558297812939,0.000932510185521096
1733860966162749700,11.259749755859374,-0.015262854285538197,0.016614746302366257,0.001064975280314684
1733860966172700700,11.26970068359375,-0.013915827497839928,0.01862410269677639,-0.00014250189997255802
1733860966182651600,11.279651611328125,-0.01070860680192709,0.0170885156840086,0.0029204334132373333
1733860966192602600,11.2896025390625,-0.006369251757860184,0.013793918304145336,0.0033462727442383766
1733860966202552800,11.299552734375,-0.0038854421582072973,0.008480153977870941,0.003534572897478938
1733860966212503600,11.309503662109375,0.0033138813450932503,0.000986285274848342,0.006588686257600784
1733860966222454800,11.319454833984375,0.00486172316595912,-0.007806138135492802,0.006631148513406515
1733860966232405800,11.32940576171875,0.003253706730902195,-0.012681853026151657,0.0060503133572638035
1733860966242355700,11.339355712890624,0.002480432391166687,-0.01599167287349701,0.0041180569678545
1733860966252306700,11.349306640625,0.0007943850941956043,-0.019162699580192566,-0.001165654743090272
1733860966262258000,11.3592578125,-0.002196120098233223,-0.017693448811769485,-0.002158887218683958
1733860966272208600,11.369208740234376,-0.0031849518418312073,-0.016260402277112007,-0.003998865373432636
1733860966282158600,11.37915869140625,-0.0034101768396794796,-0.01385900191962719,-0.00220340583473444
1733860966292109800,11.38910986328125,-0.0042525348253548145,-0.007401103153824806,-0.0007913976442068815
1733860966302060800,11.399060791015625,-0.0024894527159631252,-0.0007900521159172058,0.00035014457534998655
1733860966312011800,11.40901171875,-0.00005612242966890335,0.007508624345064163,0.001841781078837812
1733860966321962800,11.418962646484376,0.0015155691653490067,0.011091609485447407,0.0032863516826182604
1733860966331912700,11.42891259765625,0.003580051474273205,0.01249243225902319,0.004021916538476944
1733860966341863700,11.43886376953125,0.0058229658752679825,0.011966457590460777,0.004546293057501316
1733860966351814700,11.448814697265625,0.007987583056092262,0.010941406711935997,0.0062911962158977985
1733860966361765600,11.458765625,0.0056014154106378555,0.01224370114505291,0.0048735616728663445
1733860966371715800,11.4687158203125,0.007982281036674976,0.011932377703487873,0.002886843867599964
1733860966381666600,11.47866650390625,0.004926588386297226,0.013509773649275303,0.0030745051335543394
1733860966391617800,11.48861767578125,0.0026575755327939987,0.0094324741512537,0.0031789010390639305
1733860966401568800,11.49856884765625,0.0011654249392449856,0.005929890088737011,0.0028893244452774525
1733860966411519700,11.508519775390624,-0.0038362580817192793,0.0023820269852876663,0.0015750544844195247
1733860966421469700,11.5184697265625,-0.005376104265451431,0.001155373058281839,-0.00004873319994658232
1733860966431421000,11.5284208984375,-0.002013863530009985,0.0009782728739082813,-0.002681534271687269
1733860966441371600,11.53837158203125,-0.0003437113482505083,0.0024928338825702667,-0.0029476196505129337
1733860966451323000,11.548322998046874,-0.0013921977952122688,0.0019665933214128017,-0.005034206435084343
1733860966461272800,11.55827294921875,-0.0007607040461152792,-0.002060173312202096,-0.004695570562034845
1733860966471223800,11.568223876953125,-0.004861705936491489,-0.010297597385942936,-0.004500360693782568
1733860966481174800,11.5781748046875,-0.003612880129367113,-0.0209233146160841,-0.005492492578923702
1733860966491125800,11.588125732421876,-0.004053633194416761,-0.030819620937108994,-0.0054189893417060375
1733860966501075700,11.59807568359375,-0.004653903655707836,-0.03807646781206131,-0.00921580009162426
1733860966511026700,11.608026611328125,-0.0026874258182942867,-0.037016529589891434,-0.0110477888956666
1733860966520977700,11.617977783203125,-0.00137579464353621,-0.036705195903778076,-0.011655821464955807
1733860966530928600,11.6279287109375,-0.0006708558648824692,-0.03454457223415375,-0.011429985985159874
1733860966540879600,11.637879638671874,0.00015489058569073677,-0.03074215166270733,-0.009884740225970745
1733860966550829600,11.64782958984375,0.00582848908379674,-0.025354309007525444,-0.007036489434540272
1733860966560780800,11.65778076171875,0.006289112381637096,-0.01658366620540619,-0.004847664386034012
1733860966570731500,11.6677314453125,0.006805765442550182,-0.009458644315600395,-0.0033445763401687145
1733860966580682800,11.677682861328124,0.006548435427248478,-0.00592731311917305,-0.004947910085320473
1733860966590632700,11.6876328125,0.005419787019491196,-0.0004033846780657768,-0.0017217565327882767
1733860966600583700,11.697583740234375,0.007592158392071724,0.0022134468890726566,-0.003906588535755873
1733860966610534700,11.70753466796875,0.005528208799660206,0.004552234895527363,-0.0017483625560998917
1733860966620486000,11.71748583984375,0.0060331071726977825,0.005735199432820082,-0.0020485843997448683
1733860966630435600,11.727435546875,0.006690108682960272,0.004126117564737797,-0.0019127633422613144
1733860966640386800,11.73738671875,0.005146565847098827,-0.000038525788113474846,-0.0011671113315969706
1733860966650337800,11.747337890625,0.0021305358968675137,-0.0012342848349362612,-0.003069940023124218
1733860966660288800,11.757288818359376,-0.0011393241584300995,-0.004125156439840794,-0.004214857704937458
1733860966670239700,11.76723974609375,-0.003976656123995781,-0.0062692672945559025,-0.003615646855905652
1733860966680189700,11.777189697265625,-0.0058198049664497375,-0.004584010690450668,-0.004050574265420437
1733860966690140700,11.787140625,-0.009561812505126,-0.0029080838430672884,-0.00203030020929873
1733860966700091100,11.797091064453125,-0.009471176192164421,-0.0005905770231038332,-0.0010686111636459827
1733860966710042000,11.8070419921875,-0.009504199028015137,0.001293609500862658,-0.000584182096645236
1733860966719992000,11.816991943359374,-0.008333884179592133,0.0019417800940573215,-0.003912880085408688
1733860966729943300,11.826943359375,-0.008394603617489338,0.0010786496568471193,-0.0037693355698138475
